Time [s],Distance [m],APPS1 [%],APPS2 [%],Brake_Front,Brake_Rear,motor_temp,igbt_temp,301_flags1,301_flags2,Map,305_flags1,request_torq,actual_torq,305_flags2,305_flags3,306_flags1,306_flags2,309_flags1,Encoder_Num,309_flags2,309_flags3,30A_flags,30C_flags,DEF,PLEX_pageNum,Power Limit,Motor_RPM,EnergyRemain,Control Syst,RPM_FL,RPM_FR,TotalVoltage,Min_cell_vol,Max_cell_vol,avg_cell_vol,mx_cell_md_t,WattH,mampsH,Min_cell_tem,Max_cell_tem,Avg_celll_te,Current [mA],Voltage [V],AMS_error,Water_temp [C],Fan,4D0_flags,IGBT_temp [C],motor_temp [C],Linear_RL_1,Linear_RL_2,Linear_RR_1,Linear_RR_2,RPM_RL,RPM_RR,Heave Linear,HeaveLinearD,Roll Linear,Roll LinearD,SteeringAngl [deg],tele_prim_in,tele_sens_in,Gyro_X,Gyro_Y,Gyro_Z,Accel_X,Accel_Y,Accel_Z,Temperature [C],Infrared_RR1 [C],Infrared_RR2 [C],Infrared_RR3 [C],Infrared_RR4 [C],Infrared_FL1 [C],Infrared_FL2 [C],Infrared_FL3 [C],Infrared_FL4 [C],Infrared_FR1 [C],Infrared_FR2 [C],Infrared_FR3 [C],Infrared_FR4 [C],Infrared_RL1 [C],Infrared_RL2 [C],Infrared_RL3 [C],Infrared_RL4 [C],LOG_BUTTON,ODO [km],LAP,LAP t [s],LAP dist [m],bLAP t [s],ACC Long [g],ACC Lat [g],ACC Comb [g],LOG Time [m:s],POWER [hp],TORQUE [Nm],GPS Speed [kph],GPS Long [deg],GPS Lat [deg],Bearing [deg],uFLAGS1,prevLAP t [s],ACC LONG,ACC LAT,BMS_Status,IMD_Status,BSPD_Status,AIR-_Open,AIR+_Open,AA,RTD_Status,DRS,Inv_Status,CurrLimReach,IGBT_TempLim,MotorTempLim,CurrPeakWarn,DefectivePrm,HW_Fault,SafetyCrcuit,InvertStatus,APPs_Status,Brake_Status,APP_Deviatio,Brake_Deviat,SW_BSPD,DevDisStatus,SW_BSPD_Stat,CAN_time_out,BadEncoderSg,Overvoltage,Overcurrent,Curr_measure,BallastOverl,runSgnal_EMI,RFE_Status,SupplyStatus,OutVoltLimit,Overcurr200A,BallastOvl87,MsgToDB_R2D,MsgToDB_PC,R2Dmsg_toVCU,Regen_Status,Precharge,Msg_to_DRS,Request_R2D,MsgFromECU,AA_Button,R2D_Button,Encoder_Btn,pageL_Button,pageR_Button,DRS_Button,FAN_ON,Pumps,MotorTempHgh,DevTempHgh,MotorTempLim_159,DevTempLimit,DRS_ON,SLOW_DOWN
17:08:33.700,338.15,48,53,0,0,40,37,112,12,2,1,-11600,-6782,0,0,1,1,1,0,0,1,0,0,100,4,65,1742,0,0,397,435,0,3.91,3.96,3.94,68,45,81,32,36,34,36285,563.624,0,0,0,5,37,40,27,48,32,35,420,465,0,0,8,0.82,-27,8,85,0,0,0,0,0,0,0,36,36,36,35,0,0,0,0,33,36,36,34,32,36,36,37,0,600207,0,0,0,0,0.107,-0.544,0.554,36.69,1.6315464,6.5,31.7,23.783656,38.03612,302.3,0,0,7,-55,0,0,0,0,1,1,1,0,0,0,1,1,0,0,0,0,1,0,0,0,0,0,0,0,0,0,0,0,0,0,0,0,0,0,0,0,1,1,1,0,1,0,0,0,0,0,0,0,0,0,0,1,0,1,0,0,0,0
17:08:33.720,338.33,58,62,0,0,40,37,112,12,2,1,-11600,-6782,0,0,1,1,1,0,0,1,0,0,100,4,65,1742,0,0,397,435,0,3.91,3.96,3.94,68,45,81,32,36,34,36285,563.624,0,0,0,5,37,40,27,48,32,35,420,465,0,0,8,0.82,-27,8,85,0,0,0,0,0,0,0,36,36,36,35,0,0,0,0,33,36,36,34,32,36,36,37,0,600207,0,0,0,0,0.134,-0.537,0.553,36.71,2.4473196,9.8,31.9,23.783656,38.03612,302.3,0,0,10,-54,0,0,0,0,1,1,1,0,0,0,1,1,0,0,0,0,1,0,0,0,0,0,0,0,0,0,0,0,0,0,0,0,0,0,0,0,1,1,1,0,1,0,0,0,0,0,0,0,0,0,0,1,0,1,0,0,0,0
17:08:33.740,338.51,58,62,0,0,40,37,112,12,2,1,-12200,-11603,0,0,1,1,1,0,0,1,0,0,100,4,65,1742,0,0,397,435,0,3.91,3.96,3.94,68,45,81,32,36,34,44127,563.624,0,0,0,5,37,40,27,48,32,35,420,465,0,0,8,0.82,-27,2,144,0,0,0,0,0,0,0,36,36,36,34,0,0,0,0,33,36,36,35,32,36,36,37,0,600207,0,0,0,0,0.158,-0.535,0.558,36.73,3.2630928,13.1,31.9,23.783656,38.03612,302.3,0,0,13,-53,0,0,0,0,1,1,1,0,0,0,1,1,0,0,0,0,1,0,0,0,0,0,0,0,0,0,0,0,0,0,0,0,0,0,0,0,1,1,1,0,1,0,0,0,0,0,0,0,0,0,0,1,0,1,0,0,0,0
17:08:33.760,338.69,58,62,0,0,40,37,112,12,2,1,-12200,-11603,0,0,1,1,1,0,0,1,0,0,100,4,65,1742,0,0,397,435,0,3.91,3.96,3.94,68,45,81,32,36,34,44127,563.624,0,0,0,5,37,40,27,48,32,35,420,465,0,0,8,0.82,-27,2,144,0,0,0,0,0,0,0,36,36,36,34,0,0,0,0,33,36,36,35,32,36,36,36,0,600207,0,0,0,0,0.177,-0.538,0.566,36.75,3.6709794,14.8,33.1,23.783656,38.03612,301.6,0,0,15,-53,0,0,0,0,1,1,1,0,0,0,1,1,0,0,0,0,1,0,0,0,0,0,0,0,0,0,0,0,0,0,0,0,0,0,0,0,1,1,1,0,1,0,0,0,0,0,0,0,0,0,0,1,0,1,0,0,0,0
17:08:33.780,338.87,58,62,0,0,40,37,112,12,2,1,-12200,-11603,0,0,1,1,1,0,0,1,0,0,100,4,65,1805,0,0,427,450,0,3.91,3.96,3.94,68,45,81,32,36,34,44127,563.624,0,0,0,5,37,40,28,96,32,82,532,480,0,0,8,0.82,-27,2,144,0,0,0,0,0,0,0,36,36,36,34,0,0,0,0,33,36,36,35,32,36,36,36,0,600207,0,0,0,0,0.179,-0.541,0.57,36.77,4.4867526,18,33.1,23.783656,38.03612,301.6,0,0,17,-53,0,0,0,0,1,1,1,0,0,0,1,1,0,0,0,0,1,0,0,0,0,0,0,0,0,0,0,0,0,0,0,0,0,0,0,0,1,1,1,0,1,0,0,0,0,0,0,0,0,0,0,1,0,1,0,0,0,0
17:08:33.800,339.06,58,62,0,0,40,37,112,12,2,1,-12200,-11603,0,0,1,1,1,0,0,1,0,0,100,4,65,1805,0,0,427,450,0,3.91,3.96,3.94,68,45,81,32,36,34,44127,563.624,0,0,0,5,37,40,28,96,32,82,532,480,0,0,7,0.74,-22,4,190,0,0,0,0,0,0,0,36,36,36,34,0,0,0,0,33,36,36,35,32,36,36,36,0,600207,0,0,0,0,0.178,-0.552,0.58,36.79,4.4867526,17.4,33.9,23.783656,38.03612,300.6,0,0,17,-54,0,0,0,0,1,1,1,0,0,0,1,1,0,0,0,0,1,0,0,0,0,0,0,0,0,0,0,0,0,0,0,0,0,0,0,0,1,1,1,0,1,0,0,0,0,0,0,0,0,0,0,1,0,1,0,0,0,0
17:08:33.820,339.25,64,68,0,0,40,37,112,12,2,1,-12200,-11603,0,0,1,1,1,0,0,1,0,0,100,4,65,1805,0,0,427,450,0,3.91,3.96,3.94,68,45,81,32,36,34,44127,563.624,0,0,0,5,37,40,28,96,32,82,532,480,0,0,7,0.74,-22,4,190,0,0,0,0,0,0,0,36,36,36,34,0,0,0,0,33,36,36,35,32,36,36,36,0,600207,0,0,0,0,0.18,-0.54,0.569,36.81,4.4867526,17.4,34.1,23.783656,38.03612,300.6,0,0,17,-55,0,0,0,0,1,1,1,0,0,0,1,1,0,0,0,0,1,0,0,0,0,0,0,0,0,0,0,0,0,0,0,0,0,0,0,0,1,1,1,0,1,0,0,0,0,0,0,0,0,0,0,1,0,1,0,0,0,0
17:08:33.840,339.44,64,68,0,0,40,37,112,12,2,1,-12200,-11603,0,0,1,1,1,0,0,1,0,0,100,4,65,1805,0,0,427,450,0,3.91,3.96,3.94,68,46,82,32,36,34,54607,561.425,0,0,0,5,37,40,28,96,32,82,532,480,0,0,7,0.74,-22,2,4,0,0,0,0,0,0,0,36,36,36,34,0,0,0,0,33,36,36,35,32,36,36,36,0,600207,0,0,0,0,0.183,-0.528,0.559,36.83,4.8946392,19,34.1,23.783656,38.03612,300.6,0,0,18,-54,0,0,0,0,1,1,1,0,0,0,1,1,0,0,0,0,1,0,0,0,0,0,0,0,0,0,0,0,0,0,0,0,0,0,0,0,1,1,1,0,1,0,0,0,0,0,0,0,0,0,0,1,0,1,0,0,0,0
17:08:33.860,339.63,64,68,0,0,40,37,112,12,2,1,-13400,-11603,0,0,1,1,1,0,0,1,0,0,100,4,65,1805,0,0,427,450,0,3.91,3.96,3.94,68,46,82,32,36,34,54607,561.425,0,0,0,5,37,40,28,96,32,82,532,480,0,0,7,0.74,-22,2,4,0,0,0,0,0,0,0,36,36,36,34,0,0,0,0,33,36,35,34,32,36,36,36,0,600207,0,0,0,0,0.213,-0.517,0.559,36.85,4.8946392,19,35.1,23.783634,38.03612,297.9,0,0,18,-52,0,0,0,0,1,1,1,0,0,0,1,1,0,0,0,0,1,0,0,0,0,0,0,0,0,0,0,0,0,0,0,0,0,0,0,0,1,1,1,0,1,0,0,0,0,0,0,0,0,0,0,1,0,1,0,0,0,0
17:08:33.880,339.82,64,68,0,0,40,37,112,12,2,1,-13400,-11603,0,0,1,1,1,0,0,1,0,0,100,4,65,2250,0,0,442,502,0,3.91,3.96,3.94,68,46,82,32,36,34,54607,561.425,0,0,0,5,37,40,29,7,33,13,547,577,0,0,7,0.74,-22,2,4,0,0,0,0,0,0,0,36,36,36,34,0,0,0,0,33,36,35,34,32,36,36,36,0,600207,0,0,0,0,0.242,-0.501,0.556,36.87,5.8463746,22.7,35.1,23.783634,38.03612,297.9,0,0,21,-51,0,0,0,0,1,1,1,0,0,0,1,1,0,0,0,0,1,0,0,0,0,0,0,0,0,0,0,0,0,0,0,0,0,0,0,0,1,1,1,0,1,0,0,0,0,0,0,0,0,0,0,1,0,1,0,0,0,0
17:08:33.900,340.02,64,68,0,0,40,37,112,12,2,1,-13400,-11603,0,0,1,1,1,0,0,1,0,0,100,4,65,2250,0,0,442,502,0,3.91,3.96,3.94,68,46,82,32,36,34,54607,561.425,0,0,0,5,37,40,29,7,33,13,547,577,0,0,7,0.6,-17,6,48,0,0,0,0,0,0,0,36,36,36,34,0,0,0,0,33,36,35,34,32,36,36,36,0,600207,0,0,0,0,0.287,-0.473,0.553,36.89,6.79811,21.2,36.3,23.783634,38.036132,297.5,0,0,24,-50,0,0,0,0,1,1,1,0,0,0,1,1,0,0,0,0,1,0,0,0,0,0,0,0,0,0,0,0,0,0,0,0,0,0,0,0,1,1,1,0,1,0,0,0,0,0,0,0,0,0,0,1,0,1,0,0,0,0
17:08:33.920,340.22,64,68,0,0,40,37,112,12,2,1,-13400,-11603,0,0,1,1,1,0,0,1,0,0,100,4,65,2250,0,0,442,502,0,3.91,3.96,3.94,68,46,82,32,36,34,54607,561.425,0,0,0,5,37,40,29,7,33,13,547,577,0,0,7,0.6,-17,6,48,0,0,0,0,0,0,0,36,36,36,34,0,0,0,0,34,37,36,35,32,36,36,36,0,600207,0,0,0,0,0.329,-0.447,0.555,36.91,8.157732,25.4,36.5,23.783634,38.036132,297.5,0,0,28,-47,0,0,0,0,1,1,1,0,0,0,1,1,0,0,0,0,1,0,0,0,0,0,0,0,0,0,0,0,0,0,0,0,0,0,0,0,1,1,1,0,1,0,0,0,0,0,0,0,0,0,0,1,0,1,0,0,0,0
17:08:33.940,340.43,58,61,0,0,40,37,112,12,2,1,-13400,-11603,0,0,1,1,1,0,0,1,0,0,100,4,65,2250,0,0,442,502,0,3.91,3.96,3.94,68,46,82,32,36,34,59598,561.425,0,0,0,5,37,40,29,7,33,13,547,577,0,0,7,0.6,-17,6,48,0,0,0,0,0,0,0,37,37,37,34,0,0,0,0,34,36,35,34,32,36,36,37,0,600207,0,0,0,0,0.348,-0.418,0.544,36.93,9.2454296,28.8,36.5,23.783634,38.036132,297.5,0,0,32,-44,0,0,0,0,1,1,1,0,0,0,1,1,0,0,0,0,1,0,0,0,0,0,0,0,0,0,0,0,0,0,0,0,0,0,0,0,1,1,1,0,1,0,0,0,0,0,0,0,0,0,0,1,0,1,0,0,0,0
17:08:33.960,340.63,58,61,0,0,40,37,112,12,2,1,-12000,-13197,0,0,1,1,1,0,0,1,0,0,100,4,65,2250,0,0,442,502,0,3.91,3.96,3.94,68,46,82,32,36,34,59598,561.425,0,0,0,5,37,40,29,7,33,13,547,577,0,0,7,0.6,-17,12,103,0,0,0,0,0,0,0,37,37,37,34,0,0,0,0,34,36,35,34,32,36,36,37,0,600207,0,0,0,0,0.363,-0.4,0.54,36.95,9.7892784,30.5,37.8,23.783634,38.036132,296.3,0,0,34,-41,0,0,0,0,1,1,1,0,0,0,1,1,0,0,0,0,1,0,0,0,0,0,0,0,0,0,0,0,0,0,0,0,0,0,0,0,1,1,1,0,1,0,0,0,0,0,0,0,0,0,0,1,0,1,0,0,0,0
17:08:33.980,340.84,58,61,0,0,40,37,112,12,2,1,-12000,-13197,0,0,1,1,1,0,0,1,0,0,100,4,65,2115,0,0,495,525,0,3.91,3.96,3.94,68,46,82,32,36,34,59598,561.425,0,0,0,5,37,40,29,7,33,13,547,577,0,0,7,0.6,-17,12,103,0,0,0,0,0,0,0,37,37,37,34,0,0,0,0,34,36,35,34,32,36,36,37,0,600207,0,0,0,0,0.376,-0.417,0.561,36.97,10.7410138,33.5,38,23.783634,38.036132,296.3,0,0,36,-40,0,0,0,0,1,1,1,0,0,0,1,1,0,0,0,0,1,0,0,0,0,0,0,0,0,0,0,0,0,0,0,0,0,0,0,0,1,1,1,0,1,0,0,0,0,0,0,0,0,0,0,1,0,1,0,0,0,0
17:08:34.000,341.06,58,61,0,0,40,37,112,12,2,1,-12000,-13197,0,0,1,1,1,0,0,1,0,0,100,4,65,2115,0,0,495,525,0,3.91,3.96,3.94,68,46,82,32,36,34,59598,561.425,0,0,0,5,37,40,31,54,34,72,540,562,0,0,7,0.6,-17,6,143,0,0,0,0,0,0,0,36,37,36,34,0,0,0,0,34,37,36,34,32,37,36,37,0,600207,0,0,0,0,0.383,-0.433,0.578,36.99,11.2848626,37.4,38.9,23.783618,38.03614,295.7,0,0,37,-41,0,0,0,0,1,1,1,0,0,0,1,1,0,0,0,0,1,0,0,0,0,0,0,0,0,0,0,0,0,0,0,0,0,0,0,0,1,1,1,0,1,0,0,0,0,0,0,0,0,0,0,1,0,1,0,0,0,0
17:08:34.020,341.27,58,61,0,0,40,37,112,12,2,1,-12000,-13197,0,0,1,1,1,0,0,1,0,0,100,4,65,2115,0,0,495,525,0,3.91,3.96,3.94,68,46,82,32,36,34,59598,561.425,0,0,0,5,37,40,31,54,34,72,540,562,0,0,7,0.6,-17,6,143,0,0,0,0,0,0,0,36,37,36,34,0,0,0,0,34,37,36,34,32,37,36,37,0,600207,0,0,0,0,0.394,-0.424,0.579,37.01,11.556787,38.3,39.1,23.783618,38.03614,295.7,0,0,38,-43,0,0,0,0,1,1,1,0,0,0,1,1,0,0,0,0,1,0,0,0,0,0,0,0,0,0,0,0,0,0,0,0,0,0,0,0,1,1,1,0,1,0,0,0,0,0,0,0,0,0,0,1,0,1,0,0,0,0
17:08:34.040,341.49,61,64,0,0,40,37,112,12,2,1,-12000,-13197,0,0,1,1,1,0,0,1,0,0,100,4,65,2115,0,0,495,525,0,3.91,3.96,3.94,68,47,84,32,36,34,54751,560.172,0,0,0,5,37,40,31,54,34,72,540,562,0,0,7,0.6,-17,6,143,0,0,0,0,0,0,0,36,37,36,34,0,0,0,0,34,36,35,34,32,37,36,37,0,600207,0,0,0,0,0.393,-0.415,0.572,37.03,12.236598,40.6,39.1,23.783618,38.03614,295.7,0,0,39,-42,0,0,0,0,1,1,1,0,0,0,1,1,0,0,0,0,1,0,0,0,0,0,0,0,0,0,0,0,0,0,0,0,0,0,0,0,1,1,1,0,1,0,0,0,0,0,0,0,0,0,0,1,0,1,0,0,0,0
17:08:34.060,341.71,61,64,0,0,40,37,112,12,2,1,-12600,-13197,0,0,1,1,1,0,0,1,0,0,100,4,65,2115,0,0,495,525,0,3.91,3.96,3.94,68,47,84,32,36,34,54751,560.172,0,0,0,5,37,40,31,54,34,72,540,562,0,0,9,0.33,-9,17,204,0,0,0,0,0,0,0,37,37,37,34,0,0,0,0,33,36,35,33,32,36,36,37,0,600207,0,0,0,0,0.392,-0.407,0.565,37.05,12.236598,40.6,40.1,23.783618,38.03614,294.8,0,0,39,-41,0,0,0,0,1,1,1,0,0,0,1,1,0,0,0,0,1,0,0,0,0,0,0,0,0,0,0,0,0,0,0,0,0,0,0,0,1,1,1,0,1,0,0,0,0,0,0,0,0,0,0,1,0,1,0,0,0,0
17:08:34.080,341.93,61,64,0,0,40,37,112,12,2,1,-12600,-13197,0,0,1,1,1,0,0,1,0,0,100,4,65,2174,0,0,547,562,0,3.91,3.96,3.94,68,47,84,32,36,34,54751,560.172,0,0,0,5,37,40,31,54,34,72,540,562,0,0,9,0.33,-9,17,204,0,0,0,0,0,0,0,37,37,37,34,0,0,0,0,33,36,35,33,32,37,36,36,0,600207,0,0,0,0,0.392,-0.399,0.559,37.07,12.5085224,41.5,40.1,23.783618,38.03614,294.8,0,0,39,-40,0,0,0,0,1,1,1,0,0,0,1,1,0,0,0,0,1,0,0,0,0,0,0,0,0,0,0,0,0,0,0,0,0,0,0,0,1,1,1,0,1,0,0,0,0,0,0,0,0,0,0,1,0,1,0,0,0,0
17:08:34.100,342.16,61,64,0,0,40,37,112,12,2,1,-12600,-13197,0,0,1,1,1,0,0,1,0,0,100,4,65,2174,0,0,547,562,0,3.91,3.96,3.94,68,47,84,32,36,34,54751,560.172,0,0,0,5,37,40,31,3,34,48,577,600,0,0,9,0.33,-9,3,248,0,0,0,0,0,0,0,36,37,36,34,0,0,0,0,33,36,35,34,32,37,36,36,0,600207,0,0,0,0,0.399,-0.373,0.546,37.09,12.5085224,40.4,41.1,23.783618,38.03614,294.6,0,0,39,-39,0,0,0,0,1,1,1,0,0,0,1,1,0,0,0,0,1,0,0,0,0,0,0,0,0,0,0,0,0,0,0,0,0,0,0,0,1,1,1,0,1,0,0,0,0,0,0,0,0,0,0,1,0,1,0,0,0,0
17:08:34.120,342.39,61,64,0,0,40,37,112,12,2,1,-12600,-13197,0,0,1,1,1,0,0,1,0,0,100,4,65,2174,0,0,547,562,0,3.91,3.96,3.94,68,47,84,32,36,34,54751,560.172,0,0,0,5,37,40,31,3,34,48,577,600,0,0,9,0.33,-9,3,248,0,0,0,0,0,0,0,36,37,36,34,0,0,0,0,34,36,36,34,32,37,36,37,0,600207,0,0,0,0,0.405,-0.349,0.535,37.11,12.916409,41.7,41.3,23.783618,38.03614,294.6,0,0,39,-37,0,0,0,0,1,1,1,0,0,0,1,1,0,0,0,0,1,0,0,0,0,0,0,0,0,0,0,0,0,0,0,0,0,0,0,0,1,1,1,0,1,0,0,0,0,0,0,0,0,0,0,1,0,1,0,0,0,0
17:08:34.140,342.62,64,68,0,0,40,37,112,12,2,1,-12600,-13197,0,0,1,1,1,0,0,1,0,0,100,4,65,2174,0,0,547,562,0,3.91,3.96,3.94,68,47,84,32,36,34,62392,560.172,0,0,0,5,37,40,31,3,34,48,577,600,0,0,9,0.33,-9,3,248,0,0,0,0,0,0,0,36,37,36,34,0,0,0,0,34,36,36,34,32,37,36,36,0,600207,0,0,0,0,0.406,-0.337,0.528,37.13,13.1883334,42.6,41.3,23.783618,38.03614,294.6,0,0,40,-34,0,0,0,0,1,1,1,0,0,0,1,1,0,0,0,0,1,0,0,0,0,0,0,0,0,0,0,0,0,0,0,0,0,0,0,0,1,1,1,0,1,0,0,0,0,0,0,0,0,0,0,1,0,1,0,0,0,0
17:08:34.160,342.85,64,68,0,0,40,37,112,12,2,1,-13400,-13401,0,0,1,1,1,0,0,1,0,0,100,4,65,2174,0,0,547,562,0,3.91,3.96,3.94,68,47,84,32,36,34,62392,560.172,0,0,0,5,37,40,31,3,34,48,577,600,0,0,8,0.26,-6,2,60,0,0,0,0,0,0,0,37,37,36,35,0,0,0,0,35,36,35,34,32,37,36,36,0,600207,0,0,0,0,0.407,-0.326,0.521,37.15,13.1883334,42.6,42.1,23.783606,38.03614,294,0,0,40,-33,0,0,0,0,1,1,1,0,0,0,1,1,0,0,0,0,1,0,0,0,0,0,0,0,0,0,0,0,0,0,0,0,0,0,0,0,1,1,1,0,1,0,0,0,0,0,0,0,0,0,0,1,0,1,0,0,0,0
17:08:34.180,343.08,64,68,0,0,40,37,112,12,2,1,-13400,-13401,0,0,1,1,1,0,0,1,0,0,100,4,65,2174,0,0,547,562,0,3.91,3.96,3.94,68,47,84,32,36,34,62392,560.172,0,0,0,5,37,40,31,3,34,48,577,600,0,0,8,0.26,-6,2,60,0,0,0,0,0,0,0,37,37,36,35,0,0,0,0,34,35,35,34,32,37,36,36,0,600207,0,0,0,0,0.418,-0.305,0.517,37.17,13.4602578,43.4,42.1,23.783606,38.03614,294,0,0,40,-32,0,0,0,0,1,1,1,0,0,0,1,1,0,0,0,0,1,0,0,0,0,0,0,0,0,0,0,0,0,0,0,0,0,0,0,0,1,1,1,0,1,0,0,0,0,0,0,0,0,0,0,1,0,1,0,0,0,0
17:08:34.200,343.32,64,68,0,0,40,37,112,12,2,1,-13400,-13401,0,0,1,1,1,0,0,1,0,0,100,4,65,2347,0,0,592,607,0,3.91,3.96,3.94,68,47,84,32,36,34,62392,560.172,0,0,0,5,37,40,30,37,34,43,607,622,0,0,8,0.26,-6,2,60,0,0,0,0,0,0,0,37,37,36,35,0,0,0,0,34,35,35,34,32,37,36,36,0,600207,0,0,0,0,0.429,-0.285,0.515,37.19,13.8681444,44.8,43.7,23.783606,38.03614,293.3,0,0,41,-30,0,0,0,0,1,1,1,0,0,0,1,1,0,0,0,0,1,0,0,0,0,0,0,0,0,0,0,0,0,0,0,0,0,0,0,0,1,1,1,0,1,0,0,0,0,0,0,0,0,0,0,1,0,1,0,0,0,0
17:08:34.220,343.57,64,68,0,0,40,37,112,12,2,1,-13400,-13401,0,0,1,1,1,0,0,1,0,0,100,4,65,2347,0,0,592,607,0,3.91,3.96,3.94,68,47,84,32,36,34,62392,560.172,0,0,0,5,37,40,30,37,34,43,607,622,0,0,8,0.26,-6,9,98,0,0,0,0,0,0,0,36,37,36,34,0,0,0,0,34,36,36,34,32,37,36,36,0,600207,0,0,0,0,0.437,-0.275,0.516,37.21,14.5479554,43.5,43.9,23.783606,38.03614,293.3,0,0,42,-28,0,0,0,0,1,1,1,0,0,0,1,1,0,0,0,0,1,0,0,0,0,0,0,0,0,0,0,0,0,0,0,0,0,0,0,0,1,1,1,0,1,0,0,0,0,0,0,0,0,0,0,1,0,1,0,0,0,0
17:08:34.240,343.81,70,74,0,0,40,37,112,12,2,1,-13400,-13401,0,0,1,1,1,0,0,1,0,0,100,4,65,2347,0,0,592,607,0,3.91,3.96,3.94,68,48,86,32,36,34,66173,560.172,0,0,0,5,37,40,30,37,34,43,607,622,0,0,8,0.26,-6,9,98,0,0,0,0,0,0,0,36,37,36,34,0,0,0,0,34,36,36,34,32,37,36,36,0,600207,0,0,0,0,0.438,-0.266,0.512,37.23,14.8198798,44.3,43.9,23.783606,38.03614,293.3,0,0,43,-27,0,0,0,0,1,1,1,0,0,0,1,1,0,0,0,0,1,0,0,0,0,0,0,0,0,0,0,0,0,0,0,0,0,0,0,0,1,1,1,0,1,0,0,0,0,0,0,0,0,0,0,1,0,1,0,0,0,0
17:08:34.260,344.06,70,74,0,0,40,37,112,12,2,1,-15000,-13401,0,0,1,1,1,0,0,1,0,0,100,4,65,2347,0,0,592,607,0,3.91,3.96,3.94,68,48,86,32,36,34,66173,560.172,0,0,0,5,37,40,30,37,34,43,607,622,0,0,8,0.26,-6,10,156,0,0,0,0,0,0,0,36,37,36,34,0,0,0,0,34,36,36,34,32,36,36,36,0,600207,0,0,0,0,0.439,-0.248,0.504,37.25,14.8198798,44.3,44.9,23.783586,38.03614,292.9,0,0,43,-26,0,0,0,0,1,1,1,0,0,0,1,1,0,0,0,0,1,0,0,0,0,0,0,0,0,0,0,0,0,0,0,0,0,0,0,0,1,1,1,0,1,0,0,0,0,0,0,0,0,0,0,1,0,1,0,0,0,0
17:08:34.280,344.31,70,74,0,0,40,37,112,12,2,1,-15000,-13401,0,0,1,1,1,0,0,1,0,0,100,4,65,2347,0,0,592,607,0,3.91,3.96,3.94,68,48,86,32,36,34,66173,560.172,0,0,0,5,37,40,30,37,34,43,607,622,0,0,8,0.26,-6,10,156,0,0,0,0,0,0,0,37,37,36,34,0,0,0,0,33,35,35,34,32,36,36,36,0,600207,0,0,0,0,0.451,-0.231,0.507,37.27,15.2277664,45.5,44.9,23.783586,38.03614,292.9,0,0,43,-24,0,0,0,0,1,1,1,0,0,0,1,1,0,0,0,0,1,0,0,0,0,0,0,0,0,0,0,0,0,0,0,0,0,0,0,0,1,1,1,0,1,0,0,0,0,0,0,0,0,0,0,1,0,1,0,0,0,0
17:08:34.300,344.56,70,74,0,0,40,37,112,12,2,1,-15000,-13401,0,0,1,1,1,0,0,1,0,0,100,4,65,2448,0,0,607,630,0,3.91,3.96,3.94,68,48,86,32,36,34,66173,560.172,0,0,0,5,37,40,32,0,34,47,652,667,0,0,8,0.26,-6,10,156,0,0,0,0,0,0,0,37,37,36,34,0,0,0,0,33,35,35,34,32,36,36,36,0,600207,0,0,0,0,0.463,-0.224,0.514,37.29,15.9075774,47.6,45.9,23.783586,38.036144,292.9,0,0,45,-23,0,0,0,0,1,1,1,0,0,0,1,1,0,0,0,0,1,0,0,0,0,0,0,0,0,0,0,0,0,0,0,0,0,0,0,0,1,1,1,0,1,0,0,0,0,0,0,0,0,0,0,1,0,1,0,0,0,0
17:08:34.320,344.81,70,74,0,0,40,37,112,12,2,1,-15000,-13401,0,0,1,1,1,0,0,1,0,0,100,4,65,2448,0,0,607,630,0,3.91,3.96,3.94,68,48,86,32,36,34,66173,560.172,0,0,0,5,37,40,32,0,34,47,652,667,0,0,7,0.87,-5,5,201,0,0,0,0,0,0,0,36,37,36,34,0,0,0,0,33,35,35,34,32,36,36,36,0,600207,0,0,0,0,0.473,-0.218,0.521,37.31,16.5873884,47.5,46.1,23.783586,38.036144,292.9,0,0,46,-22,0,0,0,0,1,1,1,0,0,0,1,1,0,0,0,0,1,0,0,0,0,0,0,0,0,0,0,0,0,0,0,0,0,0,0,0,1,1,1,0,1,0,0,0,0,0,0,0,0,0,0,1,0,1,0,0,0,0
17:08:34.340,345.07,67,72,0,0,40,38,112,12,2,1,-15000,-13401,0,0,1,1,1,0,0,1,0,0,100,4,65,2448,0,0,607,630,0,3.91,3.96,3.94,68,48,86,32,36,34,75946,560.172,0,0,0,5,37,40,32,0,34,47,652,667,0,0,7,0.87,-5,5,201,0,0,0,0,0,0,0,36,37,36,34,0,0,0,0,34,36,36,34,32,36,36,36,0,600207,0,0,0,0,0.466,-0.235,0.522,37.33,17.4031616,49.9,46.1,23.783586,38.036144,292.9,0,0,47,-21,0,0,0,0,1,1,1,0,0,0,1,1,0,0,0,0,1,0,0,0,0,0,0,0,0,0,0,0,0,0,0,0,0,0,0,0,1,1,1,0,1,0,0,0,0,0,0,0,0,0,0,1,0,1,0,0,0,0
17:08:34.360,345.33,67,72,0,0,40,38,112,12,2,1,-15000,-13401,0,0,1,1,1,0,0,1,0,0,100,4,65,2448,0,0,607,630,0,3.91,3.96,3.94,68,48,86,32,36,34,75946,560.172,0,0,0,5,37,40,32,0,34,47,652,667,0,0,7,0.87,-5,5,201,0,0,0,0,0,0,0,36,36,36,34,0,0,0,0,34,35,35,33,32,36,35,35,0,600207,0,0,0,0,0.433,-0.25,0.5,37.35,16.995275,48.7,48.1,23.783586,38.036144,291.7,0,0,46,-23,0,0,0,0,1,1,1,0,0,0,1,1,0,0,0,0,1,0,0,0,0,0,0,0,0,0,0,0,0,0,0,0,0,0,0,0,1,1,1,0,1,0,0,0,0,0,0,0,0,0,0,1,0,1,0,0,0,0
17:08:34.380,345.6,67,72,0,0,40,38,112,12,2,1,-14000,-13401,0,0,1,1,1,0,0,1,0,0,100,4,65,2448,0,0,607,630,0,3.91,3.96,3.94,68,48,86,32,36,34,75946,560.172,0,0,0,5,37,40,32,0,34,47,652,667,0,0,7,0.87,-5,18,6,0,0,0,0,0,0,0,36,36,36,34,0,0,0,0,34,35,35,33,32,36,35,36,0,600207,0,0,0,0,0.395,-0.265,0.476,37.37,16.5873884,47.5,48.1,23.783586,38.036144,291.7,0,0,43,-25,0,0,0,0,1,1,1,0,0,0,1,1,0,0,0,0,1,0,0,0,0,0,0,0,0,0,0,0,0,0,0,0,0,0,0,0,1,1,1,0,1,0,0,0,0,0,0,0,0,0,0,1,0,1,0,0,0,0
17:08:34.400,345.87,67,72,0,0,40,38,112,12,2,1,-14000,-13401,0,0,1,1,1,0,0,1,0,0,100,4,65,2596,0,0,622,637,0,3.91,3.96,3.94,68,48,86,32,36,34,75946,560.172,0,0,0,5,37,40,31,58,34,19,682,690,0,0,7,0.87,-5,18,6,0,0,0,0,0,0,0,36,36,36,34,0,0,0,0,34,35,35,33,32,36,35,36,0,600207,0,0,0,0,0.345,-0.279,0.444,37.39,15.0918042,43.2,48.5,23.78357,38.036144,291.1,0,0,39,-26,0,0,0,0,1,1,1,0,0,0,1,1,0,0,0,0,1,0,0,0,0,0,0,0,0,0,0,0,0,0,0,0,0,0,0,0,1,1,1,0,1,0,0,0,0,0,0,0,0,0,0,1,0,1,0,0,0,0
17:08:34.420,346.14,67,72,0,0,40,38,112,12,2,1,-14000,-13401,0,0,1,1,1,0,0,1,0,0,100,4,65,2596,0,0,622,637,0,3.83,3.92,3.9,68,48,86,32,36,34,75946,560.172,0,0,0,5,37,40,31,58,34,19,682,690,0,0,7,0.87,-5,18,6,0,0,0,0,0,0,0,36,36,36,34,0,0,0,0,34,36,35,34,32,36,36,36,0,600207,0,0,0,0,0.29,-0.3,0.417,37.41,13.0523712,35.3,48.7,23.78357,38.036144,291.1,0,0,34,-27,0,0,0,0,1,1,1,0,0,0,1,1,0,0,0,0,1,0,0,0,0,0,0,0,0,0,0,0,0,0,0,0,0,0,0,0,1,1,1,0,1,0,0,0,0,0,0,0,0,0,0,1,0,1,0,0,0,0
17:08:34.440,346.41,67,72,0,0,40,38,112,12,2,1,-14000,-13401,0,0,1,1,1,0,0,1,0,0,100,4,65,2596,0,0,622,637,0,3.83,3.92,3.9,68,49,88,32,36,34,47964,559.016,0,0,0,5,37,40,31,58,34,19,682,690,0,0,8,0,-6,18,69,0,0,0,0,0,0,0,36,36,36,34,0,0,0,0,34,36,35,34,32,36,36,36,0,600207,0,0,0,0,0.216,-0.319,0.385,37.43,11.1489004,30.1,48.7,23.78357,38.036144,291.1,0,0,29,-30,0,0,0,0,1,1,1,0,0,0,1,1,0,0,0,0,1,0,0,0,0,0,0,0,0,0,0,0,0,0,0,0,0,0,0,0,1,1,1,0,1,0,0,0,0,0,0,0,0,0,0,1,0,1,0,0,0,0
17:08:34.460,346.68,0,0,23,26,40,38,112,12,2,1,-14000,-13401,0,0,1,1,1,0,0,1,0,0,100,4,65,2596,0,0,622,637,0,3.83,3.92,3.9,68,49,88,32,36,34,47964,559.016,0,0,0,5,37,40,31,58,34,19,682,690,0,0,8,0,-6,18,69,0,0,0,0,0,0,0,36,36,36,34,0,0,0,0,34,36,35,34,32,36,36,36,0,600207,0,0,0,0,0.112,-0.321,0.34,37.45,8.157732,22,49.2,23.78357,38.036144,290.1,0,0,21,-31,0,0,0,0,1,1,1,0,0,0,1,1,0,0,0,0,1,0,0,0,0,0,0,0,0,0,0,0,0,0,0,0,0,0,0,0,1,1,1,0,1,0,0,0,0,0,0,0,0,0,0,1,0,1,0,0,0,0
17:08:34.480,346.95,0,0,23,26,40,38,112,12,2,1,0,-3799,0,0,1,1,1,0,0,1,0,0,100,4,65,2596,0,0,622,637,0,3.83,3.92,3.9,68,49,88,32,36,34,47964,559.016,0,0,0,5,37,40,31,58,34,19,682,690,0,0,8,0,-6,5,133,0,0,0,0,0,0,0,36,36,36,34,0,0,0,0,34,35,35,33,31,36,36,35,0,600207,0,0,0,0,0.006,-0.323,0.323,37.47,4.3507904,11.7,49.2,23.78357,38.036144,290.1,0,0,11,-32,0,0,0,0,1,1,1,0,0,0,1,1,0,0,0,0,1,0,0,0,0,0,0,0,0,0,0,0,0,0,0,0,0,0,0,0,1,1,1,0,1,0,0,0,0,0,0,0,0,0,0,1,0,1,0,0,0,0
17:08:34.500,347.22,0,0,23,26,40,38,112,12,2,1,0,-3799,0,0,1,1,1,0,0,1,0,0,100,4,65,2596,0,0,622,637,0,3.83,3.92,3.9,68,49,88,32,36,34,47964,559.016,0,0,0,5,37,40,28,87,32,60,577,592,0,0,8,0,-6,5,133,0,0,0,0,0,0,0,36,36,36,34,0,0,0,0,34,35,35,33,31,36,36,35,0,600207,0,0,0,0,-0.084,-0.325,0.336,37.49,0,0,47.8,23.783552,38.03616,289.4,0,0,0,-32,0,0,0,0,1,1,1,0,0,0,1,1,0,0,0,0,1,0,0,0,0,0,0,0,0,0,0,0,0,0,0,0,0,0,0,0,1,1,1,0,1,0,0,0,0,0,0,0,0,0,0,1,0,1,0,0,0,0
17:08:34.520,347.49,0,0,23,26,40,38,112,12,2,1,0,-3799,0,0,1,1,1,0,0,1,0,0,100,4,65,2259,1,1,585,607,0,3.83,3.92,3.9,68,49,88,32,36,34,47964,559.016,0,0,0,5,37,40,28,87,32,60,577,592,0,0,8,0,-6,5,133,0,0,0,0,0,0,0,36,36,36,34,0,0,0,0,34,35,35,34,31,36,36,35,0,600207,0,0,0,0,-0.154,-0.328,0.362,37.51,-2.9911684,1597.4,47.8,23.783552,38.03616,289.4,0,0,-8,-32,0,0,0,0,1,1,1,0,0,0,1,1,0,0,0,0,1,0,0,0,0,0,0,0,0,0,0,0,0,0,0,0,0,0,0,0,1,1,1,0,1,0,0,0,0,0,0,0,0,0,0,1,0,1,0,0,0,0
17:08:34.540,347.75,0,0,23,26,40,38,112,12,2,1,0,-3799,0,0,1,1,1,0,0,1,0,0,100,4,65,2259,1,1,585,607,0,3.83,3.92,3.9,68,49,88,32,36,34,592,559.016,0,0,0,5,37,40,28,87,32,60,577,592,0,0,8,0.18,-8,6,165,0,0,0,0,0,0,0,36,36,36,34,0,0,0,0,34,36,35,34,31,36,36,36,0,600207,0,0,0,0,-0.22,-0.309,0.379,37.53,-5.7104124,54.7,47.8,23.783552,38.03616,289.4,0,0,-15,-32,0,0,0,0,1,1,1,0,0,0,1,1,0,0,0,0,1,0,0,0,0,0,0,0,0,0,0,0,0,0,0,0,0,0,0,0,1,1,1,0,1,0,0,0,0,0,0,0,0,0,0,1,0,1,0,0,0,0
17:08:34.560,348.01,0,0,23,26,40,38,112,12,2,1,0,-3799,0,0,1,1,1,0,0,1,0,0,100,4,65,2259,1,1,585,607,0,3.83,3.92,3.9,68,49,88,32,36,34,592,559.016,0,0,0,5,37,40,28,87,32,60,577,592,0,0,8,0.18,-8,6,165,0,0,0,0,0,0,0,36,36,36,34,0,0,0,0,34,36,35,34,31,36,35,36,0,600207,0,0,0,0,-0.286,-0.305,0.418,37.55,-8.2936942,46.7,46.1,23.783552,38.03616,288.3,0,0,-22,-30,0,0,0,0,1,1,1,0,0,0,1,1,0,0,0,0,1,0,0,0,0,0,0,0,0,0,0,0,0,0,0,0,0,0,0,0,1,1,1,0,1,0,0,0,0,0,0,0,0,0,0,1,0,1,0,0,0,0
17:08:34.580,348.27,0,0,29,33,40,38,112,12,2,1,0,-3799,0,0,1,1,1,0,0,1,0,0,100,4,65,2259,1,1,585,607,0,3.83,3.92,3.9,68,49,88,32,36,34,592,559.016,0,0,0,5,37,40,28,87,32,60,577,592,0,0,8,0.18,-8,6,165,0,0,0,0,0,0,0,36,36,36,34,0,0,0,0,34,36,35,34,31,36,35,36,0,600207,0,0,0,0,-0.348,-0.287,0.451,37.57,-10.3331272,40.4,46.1,23.783552,38.03616,288.3,0,0,-28,-30,0,0,0,0,1,1,1,0,0,0,1,1,0,0,0,0,1,0,0,0,0,0,0,0,0,0,0,0,0,0,0,0,0,0,0,0,1,1,1,0,1,0,0,0,0,0,0,0,0,0,0,1,0,1,0,0,0,0
17:08:34.600,348.52,0,0,29,33,40,38,112,12,2,0,0,-3799,0,0,1,1,1,0,0,1,0,0,100,4,65,2259,1,1,585,607,0,3.83,3.92,3.9,68,49,88,32,36,34,592,559.016,0,0,0,5,37,40,25,86,30,21,555,555,0,0,8,0.18,-8,4,226,0,0,0,0,0,0,0,36,36,36,34,0,0,0,0,34,36,35,34,32,36,35,36,0,600207,0,0,0,0,-0.404,-0.264,0.483,37.59,-12.5085224,33.6,43.9,23.783552,38.03616,287.9,0,0,-34,-28,0,0,0,0,1,1,1,0,0,0,1,1,0,0,0,0,0,0,0,0,0,0,0,0,0,0,0,0,0,0,0,0,0,0,0,0,1,1,1,0,1,0,0,0,0,0,0,0,0,0,0,1,0,1,0,0,0,0
17:08:34.620,348.76,0,0,29,33,40,38,112,12,2,0,0,-3799,0,0,1,1,1,0,0,1,0,0,100,4,65,2234,1,1,525,547,0,3.83,3.92,3.9,68,49,88,32,36,34,592,559.016,0,0,0,5,37,40,25,86,30,21,555,555,0,0,8,0.18,-8,4,226,0,0,0,0,0,0,0,36,36,36,33,0,0,0,0,34,36,35,34,31,36,35,36,0,600207,0,0,0,0,-0.457,-0.236,0.514,37.61,-13.8681444,29.4,43.6,23.783552,38.03616,287.9,0,0,-40,-26,0,0,0,0,1,1,1,0,0,0,1,1,0,0,0,0,0,0,0,0,0,0,0,0,0,0,0,0,0,0,0,0,0,0,0,0,1,1,1,0,1,0,0,0,0,0,0,0,0,0,0,1,0,1,0,0,0,0
17:08:34.640,349.01,0,0,29,33,40,38,112,12,2,0,0,-3799,0,0,1,1,1,0,0,1,0,0,100,4,65,2234,1,1,525,547,0,3.83,3.92,3.9,68,49,87,32,36,34,186,566.824,0,0,0,5,38,40,25,86,30,21,555,555,0,0,8,0.18,-8,4,226,0,0,0,0,0,0,0,36,36,36,33,0,0,0,0,34,36,35,33,31,36,35,36,0,600207,0,0,0,0,-0.513,-0.207,0.553,37.63,-15.4996908,2151.4,43.6,23.783552,38.03616,287.9,0,0,-45,-23,0,0,0,0,1,1,1,0,0,0,1,1,0,0,0,0,0,0,0,0,0,0,0,0,0,0,0,0,0,0,0,0,0,0,0,0,1,1,1,0,1,0,0,0,0,0,0,0,0,0,0,1,0,1,0,0,0,0
17:08:34.660,349.24,0,0,29,33,40,38,112,12,2,0,0,-3799,0,0,1,1,1,0,0,1,0,0,100,4,65,2234,1,1,525,547,0,3.83,3.92,3.9,68,49,87,32,36,34,186,566.824,0,0,0,5,38,40,25,86,30,21,555,555,0,0,7,0.82,-1,23,33,0,0,0,0,0,0,0,36,36,36,33,0,0,0,0,34,36,35,33,32,36,35,36,0,600207,0,0,0,0,-0.565,-0.179,0.593,37.65,-17.675086,2144.6,41.6,23.783536,38.036168,287.9,0,0,-51,-20,0,0,0,0,1,1,1,0,0,0,1,1,0,0,0,0,0,0,0,0,0,0,0,0,0,0,0,0,0,0,0,0,0,0,0,0,1,1,1,0,1,0,0,0,0,0,0,0,0,0,0,1,0,1,0,0,0,0
17:08:34.680,349.47,0,0,27,31,40,38,112,12,2,0,0,-3799,0,0,1,1,1,0,0,1,0,0,100,4,65,2234,1,1,525,547,0,3.83,3.92,3.9,68,49,87,32,36,34,186,566.824,0,0,0,5,38,40,25,86,30,21,555,555,0,0,7,0.82,-1,23,33,0,0,0,0,0,0,0,36,36,36,34,0,0,0,0,34,36,35,33,32,36,36,36,0,600207,0,0,0,0,-0.614,-0.152,0.633,37.67,-18.4908592,2142,41.6,23.783536,38.036168,287.9,0,0,-56,-17,0,0,0,0,1,1,1,0,0,0,1,1,0,0,0,0,0,0,0,0,0,0,0,0,0,0,0,0,0,0,0,0,0,0,0,0,1,1,1,0,1,0,0,0,0,0,0,0,0,0,0,1,0,1,0,0,0,0
17:08:34.700,349.7,0,0,27,31,40,38,112,12,2,0,0,0,0,0,1,1,1,0,0,1,0,0,100,4,65,2234,1,1,525,547,0,3.83,3.92,3.9,68,49,87,32,36,34,186,566.824,0,0,0,5,38,40,25,14,28,56,495,495,0,0,7,0.82,-1,23,33,0,0,0,0,0,0,0,36,36,36,34,0,0,0,0,34,35,35,33,32,36,36,36,0,600207,0,0,0,0,-0.663,-0.12,0.674,37.69,-20.1224056,2136.9,40.2,23.783536,38.036168,288.3,0,0,-61,-15,0,0,0,0,1,1,1,0,0,0,1,1,0,0,0,0,0,0,0,0,0,0,0,0,0,0,0,0,0,0,0,0,0,0,0,0,1,1,1,0,1,0,0,0,0,0,0,0,0,0,0,1,0,1,0,0,0,0
17:08:34.720,349.92,0,0,27,31,40,38,112,12,2,0,0,0,0,0,1,1,1,0,0,1,0,0,100,4,65,2234,1,1,525,547,0,3.83,3.92,3.9,68,49,87,32,36,34,186,566.824,0,0,0,5,38,40,25,14,28,56,495,495,0,0,7,0.82,-1,16,99,0,0,0,0,0,0,0,36,36,36,34,0,0,0,0,35,35,36,33,31,36,35,36,0,600207,0,0,0,0,-0.709,-0.084,0.714,37.71,-21.2101032,2133.4,39.9,23.783536,38.036168,288.3,0,0,-66,-12,0,0,0,0,1,1,1,0,0,0,1,1,0,0,0,0,0,0,0,0,0,0,0,0,0,0,0,0,0,0,0,0,0,0,0,0,1,1,1,0,1,0,0,0,0,0,0,0,0,0,0,1,0,1,0,0,0,0
17:08:34.740,350.14,0,0,27,31,40,38,112,12,2,0,0,0,0,0,1,1,1,0,0,1,0,0,100,4,65,1993,1,1,487,472,0,3.83,3.92,3.9,68,49,87,32,36,34,184,566.824,0,0,0,5,38,40,25,14,28,56,495,495,0,0,7,0.82,-1,16,99,0,0,0,0,0,0,0,36,36,36,34,0,0,0,0,35,35,36,33,31,35,35,35,0,600207,0,0,0,0,-0.752,-0.05,0.754,37.73,-21.8899142,-843.4,39.9,23.783536,38.036168,288.3,0,0,-70,-8,0,0,0,0,1,1,1,0,0,0,1,1,0,0,0,0,0,0,0,0,0,0,0,0,0,0,0,0,0,0,0,0,0,0,0,0,1,1,1,0,1,0,0,0,0,0,0,0,0,0,0,1,0,1,0,0,0,0
17:08:34.760,350.36,0,0,27,31,40,38,112,12,2,0,0,0,0,0,1,1,1,0,0,1,0,0,100,4,65,1993,1,1,487,472,0,3.83,3.92,3.9,68,49,87,32,36,34,184,566.824,0,0,0,5,38,40,25,14,28,56,495,495,0,0,7,0.82,-1,16,99,0,0,0,0,0,0,0,36,36,36,34,0,0,0,0,35,36,35,33,31,35,35,35,0,600207,0,0,0,0,-0.79,-0.014,0.79,37.75,-23.5214606,-849.1,37.5,23.78352,38.036168,289.5,0,0,-75,-5,0,0,0,0,1,1,1,0,0,0,1,1,0,0,0,0,0,0,0,0,0,0,0,0,0,0,0,0,0,0,0,0,0,0,0,0,1,1,1,0,1,0,0,0,0,0,0,0,0,0,0,1,0,1,0,0,0,0
17:08:34.780,350.57,0,0,27,30,40,38,112,12,2,0,0,0,0,0,1,1,1,0,0,1,0,0,100,4,65,1993,1,1,487,472,0,3.83,3.92,3.9,68,49,87,32,36,34,184,566.824,0,0,0,5,38,40,25,14,28,56,495,495,0,0,8,0.93,10,18,153,0,0,0,0,0,0,0,36,36,36,34,0,0,0,0,35,35,35,33,31,35,35,35,0,600207,0,0,0,0,-0.818,0.019,0.818,37.77,-23.5214606,-849.1,37.5,23.78352,38.036168,289.5,0,0,-79,-1,0,0,0,0,1,1,1,0,0,0,1,1,0,0,0,0,0,0,0,0,0,0,0,0,0,0,0,0,0,0,0,0,0,0,0,0,1,1,1,0,1,0,0,0,0,0,0,0,0,0,0,1,0,1,0,0,0,0
17:08:34.800,350.77,0,0,27,30,40,38,112,12,2,0,0,0,0,0,1,1,1,0,0,1,0,0,100,4,65,1993,1,1,487,472,0,3.83,3.92,3.9,68,49,87,32,36,34,184,566.824,0,0,0,5,38,40,24,32,25,82,457,435,0,0,8,0.93,10,18,153,0,0,0,0,0,0,0,36,36,36,34,0,0,0,0,35,35,35,33,32,36,35,35,0,600207,0,0,0,0,-0.844,0.05,0.845,37.79,-24.0653094,-851,35.7,23.78352,38.036168,290.8,0,0,-81,1,0,0,0,0,1,1,1,0,0,0,1,1,0,0,0,0,0,0,0,0,0,0,0,0,0,0,0,0,0,0,0,0,0,0,0,0,1,1,1,0,1,0,0,0,0,0,0,0,0,0,0,1,0,1,0,0,0,0
17:08:34.820,350.97,0,0,27,30,40,38,112,12,2,0,0,0,0,0,1,1,1,0,0,1,0,0,100,4,65,1993,1,1,487,472,0,3.83,3.92,3.9,68,49,87,32,36,34,184,566.824,0,0,0,5,38,40,24,32,25,82,457,435,0,0,8,0.93,10,18,153,0,0,0,0,0,0,0,36,36,36,34,0,0,0,0,35,35,35,33,32,36,35,35,0,600207,0,0,0,0,-0.873,0.092,0.878,37.81,-23.6574228,-849.6,35.3,23.78352,38.036168,290.8,0,0,-84,5,0,0,0,0,1,1,1,0,0,0,1,1,0,0,0,0,0,0,0,0,0,0,0,0,0,0,0,0,0,0,0,0,0,0,0,0,1,1,1,0,1,0,0,0,0,0,0,0,0,0,0,1,0,1,0,0,0,0
17:08:34.840,351.16,0,0,27,30,40,38,112,12,2,0,0,0,0,0,1,1,1,0,0,1,0,0,100,4,65,1782,1,1,450,397,0,3.83,3.92,3.9,68,49,87,32,36,34,181,567.079,0,0,0,5,38,40,24,32,25,82,457,435,0,0,8,0.93,10,20,213,0,0,0,0,0,0,0,35,36,36,34,0,0,0,0,35,36,36,32,32,36,35,35,0,600207,0,0,0,0,-0.902,0.132,0.912,37.83,-24.473196,-852.5,35.3,23.78352,38.036168,290.8,0,0,-87,9,0,0,0,0,1,1,1,0,0,0,1,1,0,0,0,0,0,0,0,0,0,0,0,0,0,0,0,0,0,0,0,0,0,0,0,0,1,1,1,0,1,0,0,0,0,0,0,0,0,0,0,1,0,1,0,0,0,0
17:08:34.860,351.36,0,0,27,30,40,38,112,12,2,0,0,0,0,0,1,1,1,0,0,1,0,0,100,4,65,1782,1,1,450,397,0,3.83,3.92,3.9,68,49,87,32,36,34,181,567.079,0,0,0,5,38,40,24,32,25,82,457,435,0,0,8,0.93,10,20,213,0,0,0,0,0,0,0,35,36,36,33,0,0,0,0,35,36,36,32,31,36,36,35,0,600207,0,0,0,0,-0.929,0.166,0.944,37.85,-25.2889692,-1563.4,33.5,23.78352,38.036168,292.6,0,0,-90,13,0,0,0,0,1,1,1,0,0,0,1,1,0,0,0,0,0,0,0,0,0,0,0,0,0,0,0,0,0,0,0,0,0,0,0,0,1,1,1,0,1,0,0,0,0,0,0,0,0,0,0,1,0,1,0,0,0,0
17:08:34.880,351.54,0,0,23,26,40,38,112,12,2,0,0,0,0,0,1,1,1,0,0,1,0,0,100,4,65,1782,1,1,450,397,0,3.83,3.92,3.9,68,49,87,32,36,34,181,567.079,0,0,0,5,38,40,24,32,25,82,457,435,0,0,8,0.93,10,5,254,0,0,0,0,0,0,0,35,36,36,33,0,0,0,0,35,36,36,32,31,36,36,35,0,600207,0,0,0,0,-0.955,0.191,0.974,37.87,-24.3372338,-1559.7,33.5,23.78352,38.036168,292.6,0,0,-92,16,0,0,0,0,1,1,1,0,0,0,1,1,0,0,0,0,0,0,0,0,0,0,0,0,0,0,0,0,0,0,0,0,0,0,0,0,1,1,1,0,1,0,0,0,0,0,0,0,0,0,0,1,0,1,0,0,0,0
17:08:34.900,351.72,0,0,23,26,40,38,112,12,2,0,0,0,0,0,1,1,1,0,0,1,0,0,100,4,65,1782,1,1,450,397,0,3.83,3.92,3.9,68,49,87,32,36,34,181,567.079,0,0,0,5,38,40,25,11,22,86,420,375,0,0,8,0.93,10,5,254,0,0,0,0,0,0,0,36,36,36,34,0,0,0,0,35,36,36,32,32,35,35,35,0,600207,0,0,0,0,-0.969,0.214,0.992,37.89,-25.153007,-1562.9,31.3,23.78352,38.036168,295.6,0,0,-95,19,0,0,0,0,1,1,1,0,0,0,1,1,0,0,0,0,0,0,0,0,0,0,0,0,0,0,0,0,0,0,0,0,0,0,0,0,1,1,1,0,1,0,0,0,0,0,0,0,0,0,0,1,0,1,0,0,0,0
17:08:34.920,351.89,0,0,23,26,40,38,112,12,2,0,0,0,0,0,1,1,1,0,0,1,0,0,100,4,65,1782,1,1,450,397,0,3.83,3.92,3.9,68,49,87,32,36,34,181,567.079,0,0,0,5,38,40,25,11,22,86,420,375,0,0,8,0.93,10,5,254,0,0,0,0,0,0,0,36,36,36,34,0,0,0,0,35,36,36,32,32,35,35,35,0,600207,0,0,0,0,-0.98,0.247,1.011,37.91,-23.9293472,-1558.1,30.8,23.78352,38.036168,295.6,0,0,-96,21,0,0,0,0,1,1,1,0,0,0,1,1,0,0,0,0,0,0,0,0,0,0,0,0,0,0,0,0,0,0,0,0,0,0,0,0,1,1,1,0,1,0,0,0,0,0,0,0,0,0,0,1,0,1,0,0,0,0
17:08:34.940,352.07,0,0,23,26,40,38,112,12,2,0,0,0,0,0,1,1,1,0,0,1,0,0,100,4,65,1595,1,1,397,367,0,3.83,3.92,3.9,68,49,87,32,36,34,184,567.079,0,0,0,5,38,40,25,11,22,86,420,375,0,0,9,0.32,25,4,50,0,0,0,0,0,0,0,36,36,36,34,0,0,0,0,35,35,36,31,32,35,35,35,0,600207,0,0,0,0,-0.976,0.278,1.015,37.93,-23.6574228,-1557,30.8,23.78352,38.036168,295.6,0,0,-98,24,0,0,0,0,1,1,1,0,0,0,1,1,0,0,0,0,0,0,0,0,0,0,0,0,0,0,0,0,0,0,0,0,0,0,0,0,1,1,1,0,1,0,0,0,0,0,0,0,0,0,0,1,0,1,0,0,0,0
17:08:34.960,352.23,0,0,23,26,40,38,112,12,2,0,0,0,0,0,1,1,1,0,0,1,0,0,100,4,65,1595,1,1,397,367,0,3.83,3.92,3.9,68,49,87,32,36,34,184,567.079,0,0,0,5,38,40,25,11,22,86,420,375,0,0,9,0.32,25,4,50,0,0,0,0,0,0,0,35,36,36,34,0,0,0,0,35,36,36,31,32,35,35,35,0,600207,0,0,0,0,-0.971,0.288,1.013,37.95,-23.3854984,476.3,29.9,23.7835,38.036168,297.5,0,0,-97,27,0,0,0,0,1,1,1,0,0,0,1,1,0,0,0,0,0,0,0,0,0,0,0,0,0,0,0,0,0,0,0,0,0,0,0,0,1,1,1,0,1,0,0,0,0,0,0,0,0,0,0,1,0,1,0,0,0,0
17:08:34.980,352.4,0,0,23,26,40,38,112,12,2,0,0,0,0,0,1,1,1,0,0,1,0,0,100,4,65,1595,1,1,397,367,0,3.83,3.92,3.9,68,49,87,32,36,34,184,567.079,0,0,0,5,38,40,25,11,22,86,420,375,0,0,9,0.32,25,10,98,0,0,0,0,0,0,0,36,36,36,33,0,0,0,0,35,36,36,31,32,35,35,35,0,600207,0,0,0,0,-0.958,0.296,1.003,37.97,-22.5697252,479.9,29.9,23.7835,38.036168,297.5,0,0,-97,28,0,0,0,0,1,1,1,0,0,0,1,1,0,0,0,0,0,0,0,0,0,0,0,0,0,0,0,0,0,0,0,0,0,0,0,0,1,1,1,0,1,0,0,0,0,0,0,0,0,0,0,1,0,1,0,0,0,0
17:08:35.000,352.56,0,0,13,12,40,38,112,12,2,0,0,0,0,0,1,1,1,0,0,1,0,0,100,4,65,1595,1,1,397,367,0,3.83,3.92,3.9,68,49,87,32,36,34,184,567.079,0,0,0,5,38,40,25,91,21,95,375,360,0,0,9,0.32,25,10,98,0,0,0,0,0,0,0,36,36,36,33,0,0,0,0,36,36,36,31,32,35,35,35,0,600207,0,0,0,0,-0.94,0.305,0.988,37.99,-22.1618386,481.7,29.1,23.7835,38.036168,298.9,0,0,-95,29,0,0,0,0,1,1,1,0,0,0,1,1,0,0,0,0,0,0,0,0,0,0,0,0,0,0,0,0,0,0,0,0,0,0,0,0,1,1,1,0,1,0,0,0,0,0,0,0,0,0,0,1,0,1,0,0,0,0
17:08:35.020,352.72,0,0,13,12,40,38,112,12,2,0,0,0,0,0,1,1,1,0,0,1,0,0,100,4,65,1595,1,1,397,367,0,3.83,3.92,3.9,68,49,87,32,36,34,184,567.079,0,0,0,5,38,40,25,91,21,95,375,360,0,0,9,0.32,25,10,98,0,0,0,0,0,0,0,36,36,36,33,0,0,0,0,36,36,36,31,31,35,35,36,0,600207,0,0,0,0,-0.925,0.312,0.976,38.01,-21.8899142,482.9,28.8,23.7835,38.036168,298.9,0,0,-94,30,0,0,0,0,1,1,1,0,0,0,1,1,0,0,0,0,0,0,0,0,0,0,0,0,0,0,0,0,0,0,0,0,0,0,0,0,1,1,1,0,1,0,0,0,0,0,0,0,0,0,0,1,0,1,0,0,0,0
17:08:35.040,352.88,0,0,13,12,40,38,112,12,2,0,0,0,0,0,1,1,1,0,0,1,0,0,100,4,65,1385,1,1,367,330,0,3.83,3.92,3.9,68,49,87,32,36,34,176,567.217,0,0,0,5,38,40,25,91,21,95,375,360,0,0,8,0.64,28,3,170,0,0,0,0,0,0,0,36,36,36,34,0,0,0,0,36,36,36,31,31,35,35,36,0,600207,0,0,0,0,-0.911,0.33,0.969,38.03,-20.6662544,488.3,28.8,23.7835,38.036168,298.9,0,0,-92,31,0,0,0,0,1,1,1,0,0,0,1,1,0,0,0,0,0,0,0,0,0,0,0,0,0,0,0,0,0,0,0,0,0,0,0,0,1,1,1,0,1,0,0,0,0,0,0,0,0,0,0,1,0,1,0,0,0,0
17:08:35.060,353.04,0,0,13,12,40,38,112,12,2,0,0,0,0,0,1,1,1,0,0,1,0,0,100,4,65,1385,1,1,367,330,0,3.83,3.92,3.9,68,49,87,32,36,34,176,567.217,0,0,0,5,38,40,25,91,21,95,375,360,0,0,8,0.64,28,3,170,0,0,0,0,0,0,0,36,36,36,34,0,0,0,0,35,36,36,31,31,35,35,36,0,600207,0,0,0,0,-0.907,0.349,0.972,38.05,-20.5302922,1982.6,27.9,23.7835,38.03618,300.6,0,0,-91,33,0,0,0,0,1,1,1,0,0,0,1,1,0,0,0,0,0,0,0,0,0,0,0,0,0,0,0,0,0,0,0,0,0,0,0,0,1,1,1,0,1,0,0,0,0,0,0,0,0,0,0,1,0,1,0,0,0,0
17:08:35.080,353.2,0,0,13,12,40,38,112,12,2,0,0,0,0,0,1,1,1,0,0,1,0,0,100,4,65,1385,1,1,367,330,0,3.83,3.92,3.9,68,49,87,32,36,34,176,567.217,0,0,0,5,38,40,25,91,21,95,375,360,0,0,8,0.64,28,5,204,0,0,0,0,0,0,0,36,36,36,34,0,0,0,0,35,36,36,31,32,35,35,35,0,600207,0,0,0,0,-0.903,0.368,0.975,38.07,-19.5785568,1987.4,27.9,23.7835,38.03618,300.6,0,0,-90,34,0,0,0,0,1,1,1,0,0,0,1,1,0,0,0,0,0,0,0,0,0,0,0,0,0,0,0,0,0,0,0,0,0,0,0,0,1,1,1,0,1,0,0,0,0,0,0,0,0,0,0,1,0,1,0,0,0,0
17:08:35.100,353.35,0,0,10,9,40,38,112,12,2,0,0,0,0,0,1,1,1,0,0,1,0,0,100,4,65,1385,1,1,367,330,0,3.83,3.92,3.9,68,49,87,32,36,34,176,567.217,0,0,0,5,38,40,25,77,23,50,360,322,0,0,8,0.64,28,5,204,0,0,0,0,0,0,0,36,36,35,34,0,0,0,0,35,36,36,31,32,35,35,35,0,600207,0,0,0,0,-0.902,0.385,0.981,38.09,-19.5785568,1987.4,26.9,23.7835,38.03618,302.9,0,0,-90,36,0,0,0,0,1,1,1,0,0,0,1,1,0,0,0,0,0,0,0,0,0,0,0,0,0,0,0,0,0,0,0,0,0,0,0,0,1,1,1,0,1,0,0,0,0,0,0,0,0,0,0,1,0,1,0,0,0,0
17:08:35.120,353.5,0,0,10,9,40,38,112,12,2,0,0,0,0,0,1,1,1,0,0,1,0,0,100,4,65,1385,1,1,367,330,0,3.83,3.92,3.9,68,49,87,32,36,34,176,567.217,0,0,0,5,38,40,25,77,23,50,360,322,0,0,8,0.64,28,5,204,0,0,0,0,0,0,0,36,36,35,34,0,0,0,0,35,35,35,31,31,35,35,35,0,600207,0,0,0,0,-0.9,0.389,0.98,38.11,-18.7627836,1991.5,26.7,23.7835,38.03618,302.9,0,0,-90,38,0,0,0,0,1,1,1,0,0,0,1,1,0,0,0,0,0,0,0,0,0,0,0,0,0,0,0,0,0,0,0,0,0,0,0,0,1,1,1,0,1,0,0,0,0,0,0,0,0,0,0,1,0,1,0,0,0,0
17:08:35.140,353.65,0,0,10,9,40,38,112,12,2,0,0,0,0,0,1,1,1,0,0,1,0,0,100,4,65,1270,1,1,352,315,0,3.83,3.92,3.9,68,49,87,32,36,34,181,567.217,0,0,0,5,38,40,25,77,23,50,360,322,0,0,9,0.5,35,16,11,0,0,0,0,0,0,0,35,36,36,34,0,0,0,0,35,35,36,31,31,35,35,35,0,600207,0,0,0,0,-0.898,0.393,0.98,38.13,-18.7627836,1991.5,26.7,23.7835,38.03618,302.9,0,0,-90,38,0,0,0,0,1,1,1,0,0,0,1,1,0,0,0,0,0,0,0,0,0,0,0,0,0,0,0,0,0,0,0,0,0,0,0,0,1,1,1,0,1,0,0,0,0,0,0,0,0,0,0,1,0,1,0,0,0,0
17:08:35.160,353.79,0,0,10,9,40,38,112,12,2,0,0,0,0,0,1,1,1,0,0,1,0,0,100,4,65,1270,1,1,352,315,0,3.83,3.92,3.9,68,49,87,32,36,34,181,567.217,0,0,0,5,38,40,25,77,23,50,360,322,0,0,9,0.5,35,16,11,0,0,0,0,0,0,0,35,36,36,34,0,0,0,0,35,35,36,31,31,35,35,35,0,600207,0,0,0,0,-0.88,0.401,0.967,38.15,-18.6268214,-2703.9,25.8,23.783488,38.03618,304.7,0,0,-89,39,0,0,0,0,1,1,1,0,0,0,1,1,0,0,0,0,0,0,0,0,0,0,0,0,0,0,0,0,0,0,0,0,0,0,0,0,1,1,1,0,1,0,0,0,0,0,0,0,0,0,0,1,0,1,0,0,0,0
17:08:35.180,353.94,0,0,10,9,40,38,112,12,2,0,0,0,0,0,1,1,1,0,0,1,0,0,100,4,65,1270,1,1,352,315,0,3.83,3.92,3.9,68,49,87,32,36,34,181,567.217,0,0,0,5,38,40,25,77,23,50,360,322,0,0,9,0.5,35,16,11,0,0,0,0,0,0,0,35,36,36,34,0,0,0,0,35,35,36,31,32,35,35,35,0,600207,0,0,0,0,-0.863,0.408,0.955,38.17,-17.675086,-2698.6,25.8,23.783488,38.03618,304.7,0,0,-88,40,0,0,0,0,1,1,1,0,0,0,1,1,0,0,0,0,0,0,0,0,0,0,0,0,0,0,0,0,0,0,0,0,0,0,0,0,1,1,1,0,1,0,0,0,0,0,0,0,0,0,0,1,0,1,0,0,0,0
17:08:35.200,354.08,0,0,8,6,40,38,112,12,2,0,0,0,0,0,1,1,1,0,0,1,0,0,100,4,65,1270,1,1,352,315,0,3.83,3.92,3.9,68,49,87,32,36,34,181,567.217,0,0,0,5,38,40,26,53,24,92,337,315,0,0,9,0.5,35,5,51,0,0,0,0,0,0,0,36,36,36,33,0,0,0,0,35,35,36,31,32,35,35,35,0,600207,0,0,0,0,-0.849,0.419,0.947,38.19,-17.2671994,-2696.3,25.2,23.783488,38.03618,306.6,0,0,-86,40,0,0,0,0,1,1,1,0,0,0,1,1,0,0,0,0,0,0,0,0,0,0,0,0,0,0,0,0,0,0,0,0,0,0,0,0,1,1,1,0,1,0,0,0,0,0,0,0,0,0,0,1,0,1,0,0,0,0
17:08:35.220,354.22,0,0,8,6,40,38,112,12,2,0,0,0,0,0,1,1,1,0,0,1,0,0,100,4,65,1270,1,1,352,315,0,3.83,3.92,3.9,68,49,87,32,36,34,181,567.217,0,0,0,5,38,40,26,53,24,92,337,315,0,0,9,0.5,35,5,51,0,0,0,0,0,0,0,36,36,36,33,0,0,0,0,35,35,36,31,32,35,35,35,0,600207,0,0,0,0,-0.837,0.43,0.941,38.21,-16.8593128,-2694.1,25,23.783488,38.03618,306.6,0,0,-84,41,0,0,0,0,1,1,1,0,0,0,1,1,0,0,0,0,0,0,0,0,0,0,0,0,0,0,0,0,0,0,0,0,0,0,0,0,1,1,1,0,1,0,0,0,0,0,0,0,0,0,0,1,0,1,0,0,0,0
17:08:35.240,354.36,0,0,8,6,40,38,112,12,2,0,0,0,0,0,1,1,1,0,0,1,0,0,100,4,65,1223,1,1,337,300,0,3.83,3.92,3.9,68,49,87,32,36,34,175,567.334,0,0,0,5,38,40,26,53,24,92,337,315,0,0,9,0.5,35,5,51,0,0,0,0,0,0,0,36,36,36,33,0,0,0,0,35,35,36,31,31,35,34,35,0,600207,0,0,0,0,-0.826,0.455,0.943,38.23,-16.7233506,-2693.3,25,23.783488,38.03618,306.6,0,0,-83,43,0,0,0,0,1,1,1,0,0,0,1,1,0,0,0,0,0,0,0,0,0,0,0,0,0,0,0,0,0,0,0,0,0,0,0,0,1,1,1,0,1,0,0,0,0,0,0,0,0,0,0,1,0,1,0,0,0,0
17:08:35.260,354.49,0,0,8,6,40,38,112,12,2,0,0,0,0,0,1,1,1,0,0,1,0,0,100,4,65,1223,1,1,337,300,0,3.83,3.92,3.9,68,49,87,32,36,34,175,567.334,0,0,0,5,38,40,26,53,24,92,337,315,0,0,9,0.5,35,16,127,0,0,0,0,0,0,0,36,36,36,34,0,0,0,0,35,35,35,30,31,35,34,35,0,600207,0,0,0,0,-0.812,0.471,0.939,38.25,-16.4514262,-2806,24.7,23.783488,38.03618,309.3,0,0,-82,45,0,0,0,0,1,1,1,0,0,0,1,1,0,0,0,0,0,0,0,0,0,0,0,0,0,0,0,0,0,0,0,0,0,0,0,0,1,1,1,0,1,0,0,0,0,0,0,0,0,0,0,1,0,1,0,0,0,0
17:08:35.280,354.63,0,0,8,6,40,38,112,12,2,0,0,0,0,0,1,1,1,0,0,1,0,0,100,4,65,1223,1,1,337,300,0,3.83,3.92,3.9,68,49,87,32,36,34,175,567.334,0,0,0,5,38,40,26,53,24,92,337,315,0,0,9,0.5,35,16,127,0,0,0,0,0,0,0,36,36,36,34,0,0,0,0,35,35,35,30,32,35,35,36,0,600207,0,0,0,0,-0.799,0.486,0.935,38.27,-15.635653,-2801.3,24.7,23.783488,38.03618,309.3,0,0,-81,47,0,0,0,0,1,1,1,0,0,0,1,1,0,0,0,0,0,0,0,0,0,0,0,0,0,0,0,0,0,0,0,0,0,0,0,0,1,1,1,0,1,0,0,0,0,0,0,0,0,0,0,1,0,1,0,0,0,0
17:08:35.300,354.77,0,1,4,2,40,38,112,12,2,0,0,0,0,0,1,1,1,0,0,1,0,0,100,4,65,1223,1,1,337,300,0,3.83,3.92,3.9,68,49,87,32,36,34,175,567.334,0,0,0,5,38,40,26,30,24,92,330,285,0,0,9,0.5,35,16,127,0,0,0,0,0,0,0,36,36,36,34,0,0,0,0,35,35,35,30,32,35,35,36,0,600207,0,0,0,0,-0.787,0.49,0.927,38.29,-15.2277664,-2799,24.4,23.783488,38.036188,312.6,0,0,-79,48,0,0,0,0,1,1,1,0,0,0,1,1,0,0,0,0,0,0,0,0,0,0,0,0,0,0,0,0,0,0,0,0,0,0,0,0,1,1,1,0,1,0,0,0,0,0,0,0,0,0,0,1,0,1,0,0,0,0
17:08:35.320,354.9,0,1,4,2,40,38,112,12,2,0,0,0,0,0,1,1,1,0,0,1,0,0,100,4,65,1223,1,1,337,300,0,3.83,3.92,3.9,68,49,87,32,36,34,175,567.334,0,0,0,5,38,40,26,30,24,92,330,285,0,0,10,0.34,42,5,181,0,0,0,0,0,0,0,36,36,36,34,0,0,0,0,34,35,35,30,32,35,35,36,0,600207,0,0,0,0,-0.765,0.493,0.91,38.31,-15.0918042,-2798.2,24.3,23.783488,38.036188,312.6,0,0,-78,49,0,0,0,0,1,1,1,0,0,0,1,1,0,0,0,0,0,0,0,0,0,0,0,0,0,0,0,0,0,0,0,0,0,0,0,0,1,1,1,0,1,0,0,0,0,0,0,0,0,0,0,1,0,1,0,0,0,0
17:08:35.340,355.04,0,1,4,2,40,38,112,12,2,0,0,0,0,0,1,1,1,0,0,1,0,0,100,4,65,1223,1,1,337,300,0,3.83,3.92,3.9,68,49,87,32,36,34,179,567.334,0,0,0,5,38,40,26,30,24,92,330,285,0,0,10,0.34,42,5,181,0,0,0,0,0,0,0,36,36,36,34,0,0,0,0,35,35,36,31,31,35,35,36,0,600207,0,0,0,0,-0.743,0.487,0.888,38.33,-14.6839176,-2795.8,24.3,23.783488,38.036188,312.6,0,0,-76,49,0,0,0,0,1,1,1,0,0,0,1,1,0,0,0,0,0,0,0,0,0,0,0,0,0,0,0,0,0,0,0,0,0,0,0,0,1,1,1,0,1,0,0,0,0,0,0,0,0,0,0,1,0,1,0,0,0,0
17:08:35.360,355.17,0,1,4,2,40,38,112,12,2,0,0,0,0,0,1,1,1,0,0,1,0,0,100,4,65,1168,1,1,322,285,0,3.83,3.92,3.9,68,49,87,32,36,34,179,567.334,0,0,0,5,38,40,26,30,24,92,330,285,0,0,10,0.34,42,2,238,0,0,0,0,0,0,0,36,36,36,34,0,0,0,0,35,35,36,31,31,35,35,36,0,600207,0,0,0,0,-0.723,0.481,0.868,38.35,-14.276031,632.3,23.7,23.783488,38.036188,314.8,0,0,-74,48,0,0,0,0,1,1,1,0,0,0,1,1,0,0,0,0,0,0,0,0,0,0,0,0,0,0,0,0,0,0,0,0,0,0,0,0,1,1,1,0,1,0,0,0,0,0,0,0,0,0,0,1,0,1,0,0,0,0
17:08:35.380,355.3,0,1,4,2,40,38,112,12,2,0,0,0,0,0,1,1,1,0,0,1,0,0,100,4,65,1168,1,1,322,285,0,3.83,3.92,3.9,68,49,87,32,36,34,179,567.334,0,0,0,5,38,40,26,30,24,92,330,285,0,0,10,0.34,42,2,238,0,0,0,0,0,0,0,36,36,36,34,0,0,0,0,35,35,36,31,31,35,35,36,0,600207,0,0,0,0,-0.713,0.48,0.86,38.37,-13.3242956,638,23.7,23.783488,38.036188,314.8,0,0,-72,48,0,0,0,0,1,1,1,0,0,0,1,1,0,0,0,0,0,0,0,0,0,0,0,0,0,0,0,0,0,0,0,0,0,0,0,0,1,1,1,0,1,0,0,0,0,0,0,0,0,0,0,1,0,1,0,0,0,0
17:08:35.400,355.44,6,9,0,0,40,38,112,12,2,0,0,0,0,0,1,1,1,0,0,1,0,0,100,4,65,1168,1,1,322,285,0,3.83,3.92,3.9,68,49,87,32,36,34,179,567.334,0,0,0,5,38,40,27,32,25,55,322,292,0,0,10,0.34,42,2,238,0,0,0,0,0,0,0,36,36,36,33,0,0,0,0,35,35,36,30,32,35,35,35,0,600207,0,0,0,0,-0.703,0.483,0.853,38.39,-13.1883334,638.9,23.9,23.783488,38.036192,316.5,0,0,-71,48,0,0,0,0,1,1,1,0,0,0,1,1,0,0,0,0,0,0,0,0,0,0,0,0,0,0,0,0,0,0,0,0,0,0,0,0,1,1,1,0,1,0,0,0,0,0,0,0,0,0,0,1,0,1,0,0,0,0
17:08:35.420,355.57,6,9,0,0,40,38,112,12,2,0,-1600,0,0,0,1,1,1,0,0,1,0,0,100,4,65,1168,1,1,322,285,0,3.83,3.92,3.9,68,49,87,32,36,34,179,567.334,0,0,0,5,38,40,27,32,25,55,322,292,0,0,10,0.17,48,2,37,0,0,0,0,0,0,0,36,36,36,33,0,0,0,0,35,35,36,30,32,35,35,35,0,600207,0,0,0,0,-0.685,0.503,0.85,38.41,-12.916409,640.5,23.9,23.783488,38.036192,316.5,0,0,-70,48,0,0,0,0,1,1,1,0,0,0,1,1,0,0,0,0,0,0,0,0,0,0,0,0,0,0,0,0,0,0,0,0,0,0,0,0,1,1,1,0,1,0,0,0,0,0,0,0,0,0,0,1,0,1,0,0,0,0
17:08:35.440,355.7,6,9,0,0,40,38,112,12,2,0,-1600,0,0,0,1,1,1,0,0,1,0,0,100,4,65,1168,1,1,322,285,0,3.83,3.92,3.9,68,49,87,32,36,34,866,567.376,0,0,0,5,38,40,27,32,25,55,322,292,0,0,10,0.17,48,2,37,0,0,0,0,0,0,0,36,36,36,33,0,0,0,0,35,35,36,30,32,35,35,35,0,600207,0,0,0,0,-0.668,0.532,0.854,38.43,-12.5085224,642.9,23.9,23.783488,38.036192,316.5,0,0,-68,50,0,0,0,0,1,1,1,0,0,0,1,1,0,0,0,0,0,0,0,0,0,0,0,0,0,0,0,0,0,0,0,0,0,0,0,0,1,1,1,0,1,0,0,0,0,0,0,0,0,0,0,1,0,1,0,0,0,0
17:08:35.460,355.83,6,9,0,0,40,38,112,12,2,0,-1600,0,0,0,1,1,1,0,0,1,0,0,100,4,65,1197,0,0,337,277,0,3.83,3.92,3.9,68,49,87,32,36,34,866,567.376,0,0,0,5,38,40,27,32,25,55,322,292,0,0,10,0.17,48,3,80,0,0,0,0,0,0,0,36,36,36,33,0,0,0,0,34,35,34,29,32,35,35,36,0,600207,0,0,0,0,-0.652,0.56,0.859,38.45,-12.236598,644.6,23.7,23.783488,38.036192,319.5,0,0,-66,53,0,0,0,0,1,1,1,0,0,0,1,1,0,0,0,0,0,0,0,0,0,0,0,0,0,0,0,0,0,0,0,0,0,0,0,0,1,1,1,0,1,0,0,0,0,0,0,0,0,0,0,1,0,1,0,0,0,0
17:08:35.480,355.96,6,9,0,0,40,38,112,12,2,0,-1600,0,0,0,1,1,1,0,0,1,0,0,100,4,65,1197,0,0,337,277,0,3.83,3.92,3.9,68,49,87,32,36,34,866,567.376,0,0,0,5,38,40,27,32,25,55,322,292,0,0,10,0.17,48,3,80,0,0,0,0,0,0,0,36,36,36,33,0,0,0,0,34,35,34,29,32,35,35,35,0,600207,0,0,0,0,-0.637,0.586,0.866,38.47,-11.9646736,-1707.3,23.7,23.783488,38.036192,319.5,0,0,-65,56,0,0,0,0,1,1,1,0,0,0,1,1,0,0,0,0,0,0,0,0,0,0,0,0,0,0,0,0,0,0,0,0,0,0,0,0,1,1,1,0,1,0,0,0,0,0,0,0,0,0,0,1,0,1,0,0,0,0
17:08:35.500,356.1,6,9,0,0,40,38,112,12,2,0,-1600,0,0,0,1,1,1,0,0,1,0,0,100,4,65,1197,0,0,337,277,0,3.83,3.92,3.9,68,49,87,32,36,34,866,567.376,0,0,0,5,38,40,27,30,25,3,330,270,0,0,10,0.17,48,3,80,0,0,0,0,0,0,0,36,36,36,33,0,0,0,0,34,35,34,30,32,35,35,35,0,600207,0,0,0,0,-0.619,0.626,0.88,38.49,-11.6927492,-1705.7,23.3,23.783468,38.036192,324,0,0,-63,58,0,0,0,0,1,1,1,0,0,0,1,1,0,0,0,0,0,0,0,0,0,0,0,0,0,0,0,0,0,0,0,0,0,0,0,0,1,1,1,0,1,0,0,0,0,0,0,0,0,0,0,1,0,1,0,0,0,0
17:08:35.520,356.22,6,9,0,0,40,38,112,12,2,0,-1600,0,0,0,1,1,1,0,0,1,0,0,100,4,65,1197,0,0,337,277,0,3.83,3.92,3.9,68,49,87,32,36,34,866,567.376,0,0,0,5,38,40,27,30,25,3,330,270,0,0,10,0.17,48,8,138,0,0,0,0,0,0,0,36,36,35,33,0,0,0,0,35,35,33,30,32,35,35,36,0,600207,0,0,0,0,-0.602,0.663,0.896,38.51,-11.2848626,-1703.3,23.3,23.783468,38.036192,324,0,0,-61,62,0,0,0,0,1,1,1,0,0,0,1,1,0,0,0,0,0,0,0,0,0,0,0,0,0,0,0,0,0,0,0,0,0,0,0,0,1,1,1,0,1,0,0,0,0,0,0,0,0,0,0,1,0,1,0,0,0,0
17:08:35.540,356.35,6,9,0,0,40,38,112,12,2,0,-1600,0,0,0,1,1,1,0,0,1,0,0,100,4,65,1197,0,0,337,277,0,3.83,3.92,3.9,68,49,87,32,36,34,4301,567.376,0,0,0,5,38,40,27,30,25,3,330,270,0,0,10,0.17,48,8,138,0,0,0,0,0,0,0,36,36,35,33,0,0,0,0,35,35,33,30,32,35,35,35,0,600207,0,0,0,0,-0.588,0.68,0.899,38.53,-11.1489004,-1702.5,23.3,23.783468,38.036192,324,0,0,-60,66,0,0,0,0,1,1,1,0,0,0,1,1,0,0,0,0,0,0,0,0,0,0,0,0,0,0,0,0,0,0,0,0,0,0,0,0,1,1,1,0,1,0,0,0,0,0,0,0,0,0,0,1,0,1,0,0,0,0
17:08:35.560,356.48,6,9,0,0,40,38,112,12,2,0,-1600,0,0,0,1,1,1,0,0,1,0,0,100,4,65,1197,0,0,337,277,0,3.83,3.92,3.9,68,49,87,32,36,34,4301,567.376,0,0,0,5,38,40,27,30,25,3,330,270,0,0,11,0.34,70,6,191,0,0,0,0,0,0,0,36,36,36,33,0,0,0,0,35,35,32,30,32,35,35,35,0,600207,0,0,0,0,-0.582,0.677,0.893,38.55,-10.7410138,-1700.1,23.7,23.783468,38.036192,329.9,0,0,-58,68,0,0,0,0,1,1,1,0,0,0,1,1,0,0,0,0,0,0,0,0,0,0,0,0,0,0,0,0,0,0,0,0,0,0,0,0,1,1,1,0,1,0,0,0,0,0,0,0,0,0,0,1,0,1,0,0,0,0
17:08:35.580,356.62,6,9,0,0,40,38,112,12,2,0,-1600,0,0,0,1,1,1,0,0,1,0,0,100,4,65,1137,0,0,330,262,0,3.83,3.92,3.9,68,49,87,32,36,34,4301,567.376,0,0,0,5,38,40,27,30,25,3,330,270,0,0,11,0.34,70,6,191,0,0,0,0,0,0,0,36,36,36,33,0,0,0,0,35,35,32,30,32,35,35,35,0,600207,0,0,0,0,-0.587,0.674,0.894,38.57,-10.7410138,-1700.1,23.7,23.783468,38.036192,329.9,0,0,-58,67,0,0,0,0,1,1,1,0,0,0,1,1,0,0,0,0,0,0,0,0,0,0,0,0,0,0,0,0,0,0,0,0,0,0,0,0,1,1,1,0,1,0,0,0,0,0,0,0,0,0,0,1,0,1,0,0,0,0
17:08:35.600,356.75,6,9,0,0,40,38,112,12,2,0,-1600,0,0,0,1,1,1,0,0,1,0,0,100,4,65,1137,0,0,330,262,0,3.83,3.92,3.9,68,49,87,32,36,34,4301,567.376,0,0,0,5,38,40,29,4,25,40,330,285,0,0,11,0.34,70,6,191,0,0,0,0,0,0,0,36,36,36,33,0,0,0,0,35,35,32,30,32,35,35,36,0,600207,0,0,0,0,-0.592,0.705,0.921,38.59,-10.7410138,-2429.6,23.2,23.783468,38.036196,334.6,0,0,-58,67,0,0,0,0,1,1,1,0,0,0,1,1,0,0,0,0,0,0,0,0,0,0,0,0,0,0,0,0,0,0,0,0,0,0,0,0,1,1,1,0,1,0,0,0,0,0,0,0,0,0,0,1,0,1,0,0,0,0
17:08:35.620,356.88,6,9,0,0,40,38,112,12,2,0,-1600,0,0,0,1,1,1,0,0,1,0,0,100,4,65,1137,0,0,330,262,0,3.83,3.92,3.9,68,49,87,32,36,34,4301,567.376,0,0,0,5,38,40,29,4,25,40,330,285,0,0,11,0.34,70,5,225,0,0,0,0,0,0,0,35,36,36,33,0,0,0,0,35,36,31,30,32,35,35,36,0,600207,0,0,0,0,-0.599,0.734,0.947,38.61,-10.876976,-2430.5,23.2,23.783468,38.036196,334.6,0,0,-59,70,0,0,0,0,1,1,1,0,0,0,1,1,0,0,0,0,0,0,0,0,0,0,0,0,0,0,0,0,0,0,0,0,0,0,0,0,1,1,1,0,1,0,0,0,0,0,0,0,0,0,0,1,0,1,0,0,0,0
17:08:35.640,357,6,9,0,0,40,38,112,12,2,0,-1600,0,0,0,1,1,1,0,0,1,0,0,100,4,65,1137,0,0,330,262,0,3.83,3.92,3.9,68,49,87,32,36,34,4274,566.969,0,0,0,5,38,40,29,4,25,40,330,285,0,0,11,0.34,70,5,225,0,0,0,0,0,0,0,35,36,36,33,0,0,0,0,35,36,31,30,32,35,35,35,0,600207,0,0,0,0,-0.603,0.745,0.958,38.63,-10.876976,-2430.5,23.2,23.783468,38.036196,334.6,0,0,-59,73,0,0,0,0,1,1,1,0,0,0,1,1,0,0,0,0,0,0,0,0,0,0,0,0,0,0,0,0,0,0,0,0,0,0,0,0,1,1,1,0,1,0,0,0,0,0,0,0,0,0,0,1,0,1,0,0,0,0
17:08:35.660,357.13,6,9,0,0,40,38,112,12,2,1,-1600,0,0,0,1,1,1,0,0,1,0,0,100,4,65,1137,0,0,330,262,0,3.83,3.92,3.9,68,49,87,32,36,34,4274,566.969,0,0,0,5,38,40,29,4,25,40,330,285,0,0,11,0.34,70,5,225,0,0,0,0,0,0,0,35,36,36,33,0,0,0,0,35,36,31,30,32,35,35,35,0,600207,0,0,0,0,-0.595,0.755,0.961,38.65,-11.1489004,-2432.1,22.8,23.783468,38.036196,339.6,0,0,-60,74,0,0,0,0,1,1,1,0,0,0,1,1,0,0,0,0,1,0,0,0,0,0,0,0,0,0,0,0,0,0,0,0,0,0,0,0,1,1,1,0,1,0,0,0,0,0,0,0,0,0,0,1,0,1,0,0,0,0
17:08:35.680,357.26,6,9,0,0,40,38,112,12,2,1,-1600,0,0,0,1,1,1,0,0,1,0,0,100,4,65,1178,0,0,322,255,0,3.83,3.92,3.9,68,49,87,32,36,34,4274,566.969,0,0,0,5,38,40,29,4,25,40,330,285,0,0,12,0.73,91,2,26,0,0,0,0,0,0,0,35,36,36,33,0,0,0,0,35,35,31,30,32,35,35,35,0,600207,0,0,0,0,-0.588,0.767,0.966,38.67,-10.4690894,-2427.9,22.8,23.783468,38.036196,339.6,0,0,-59,75,0,0,0,0,1,1,1,0,0,0,1,1,0,0,0,0,1,0,0,0,0,0,0,0,0,0,0,0,0,0,0,0,0,0,0,0,1,1,1,0,1,0,0,0,0,0,0,0,0,0,0,1,0,1,0,0,0,0
17:08:35.700,357.38,6,9,0,0,40,38,112,12,2,1,-1600,0,0,0,1,1,1,0,0,1,0,0,100,4,65,1178,0,0,322,255,0,3.83,3.92,3.9,68,49,87,32,36,34,4274,566.969,0,0,0,5,38,40,28,96,24,50,315,285,0,0,12,0.73,91,2,26,0,0,0,0,0,0,0,35,36,36,34,0,0,0,0,34,35,31,30,32,35,35,35,0,600207,0,0,0,0,-0.591,0.778,0.977,38.69,-10.197165,-2464.2,22.2,23.783468,38.036204,344.1,0,0,-58,76,0,0,0,0,1,1,1,0,0,0,1,1,0,0,0,0,1,0,0,0,0,0,0,0,0,0,0,0,0,0,0,0,0,0,0,0,1,1,1,0,1,0,0,0,0,0,0,0,0,0,0,1,0,1,0,0,0,0
17:08:35.720,357.51,6,9,0,0,40,38,112,12,2,1,-1600,0,0,0,1,1,1,0,0,1,0,0,100,4,65,1178,0,0,322,255,0,3.83,3.92,3.9,68,49,87,32,36,34,4274,566.969,0,0,0,5,38,40,28,96,24,50,315,285,0,0,12,0.73,91,2,73,0,0,0,0,0,0,0,35,36,36,34,0,0,0,0,34,35,31,30,32,35,35,35,0,600207,0,0,0,0,-0.594,0.788,0.987,38.71,-10.4690894,-2465.8,22.1,23.783468,38.036204,344.1,0,0,-59,77,0,0,0,0,1,1,1,0,0,0,1,1,0,0,0,0,1,0,0,0,0,0,0,0,0,0,0,0,0,0,0,0,0,0,0,0,1,1,1,0,1,0,0,0,0,0,0,0,0,0,0,1,0,1,0,0,0,0
17:08:35.740,357.63,6,7,1,1,40,38,112,12,2,1,-1600,0,0,0,1,1,1,0,0,1,0,0,100,4,65,1178,0,0,322,255,0,3.83,3.92,3.9,68,49,87,32,36,34,3857,566.969,0,0,0,5,38,40,28,96,24,50,315,285,0,0,12,0.73,91,2,73,0,0,0,0,0,0,0,35,36,35,34,0,0,0,0,34,35,31,30,32,35,35,35,0,600207,0,0,0,0,-0.601,0.804,1.004,38.73,-10.4690894,-2465.8,22.1,23.783468,38.036204,344.1,0,0,-59,78,0,0,0,0,1,1,1,0,0,0,1,1,0,0,0,0,1,0,0,0,0,0,0,0,0,0,0,0,0,0,0,0,0,0,0,0,1,1,1,0,1,0,0,0,0,0,0,0,0,0,0,1,0,1,0,0,0,0
17:08:35.760,357.75,6,7,1,1,40,38,112,12,2,1,-1400,-1389,0,0,1,1,1,0,0,1,0,0,100,4,65,1178,0,0,322,255,0,3.83,3.92,3.9,68,49,87,32,36,34,3857,566.969,0,0,0,5,38,40,28,96,24,50,315,285,0,0,12,0.73,91,2,73,0,0,0,0,0,0,0,35,36,36,34,0,0,0,0,34,35,31,30,32,35,35,35,0,600207,0,0,0,0,-0.608,0.82,1.021,38.75,-10.6050516,-2466.6,22.2,23.783468,38.036204,350,0,0,-60,80,0,0,0,0,1,1,1,0,0,0,1,1,0,0,0,0,1,0,0,0,0,0,0,0,0,0,0,0,0,0,0,0,0,0,0,0,1,1,1,0,1,0,0,0,0,0,0,0,0,0,0,1,0,1,0,0,0,0
17:08:35.780,357.88,6,7,1,1,40,38,112,12,2,1,-1400,-1389,0,0,1,1,1,0,0,1,0,0,100,4,65,1207,0,0,322,240,0,3.83,3.92,3.9,68,49,87,32,36,34,3857,566.969,0,0,0,5,38,40,28,96,24,50,315,285,0,0,12,0.73,91,5,125,0,0,0,0,0,0,0,35,36,36,34,0,0,0,0,34,35,31,30,32,35,35,35,0,600207,0,0,0,0,-0.623,0.835,1.042,38.77,-10.6050516,-2466.6,22.2,23.783468,38.036204,350,0,0,-60,82,0,0,0,0,1,1,1,0,0,0,1,1,0,0,0,0,1,0,0,0,0,0,0,0,0,0,0,0,0,0,0,0,0,0,0,0,1,1,1,0,1,0,0,0,0,0,0,0,0,0,0,1,0,1,0,0,0,0
17:08:35.800,358,6,7,1,1,40,38,112,12,2,1,-1400,-1389,0,0,1,1,1,0,0,1,0,0,100,4,65,1207,0,0,322,240,0,3.83,3.92,3.9,68,49,87,32,36,34,3857,566.969,0,0,0,5,38,40,29,11,23,30,315,337,0,0,12,0.73,91,5,125,0,0,0,0,0,0,0,36,36,36,34,0,0,0,0,34,35,31,30,32,35,35,35,0,600207,0,0,0,0,-0.637,0.849,1.061,38.79,-11.0129382,1879.7,21.9,23.783468,38.036204,356.3,0,0,-62,83,0,0,0,0,1,1,1,0,0,0,1,1,0,0,0,0,1,0,0,0,0,0,0,0,0,0,0,0,0,0,0,0,0,0,0,0,1,1,1,0,1,0,0,0,0,0,0,0,0,0,0,1,0,1,0,0,0,0
17:08:35.820,358.12,6,7,1,1,40,38,112,12,2,1,-1400,-1389,0,0,1,1,1,0,0,1,0,0,100,4,65,1207,0,0,322,240,0,3.83,3.92,3.9,68,49,87,32,36,34,3857,566.969,0,0,0,5,38,40,29,11,23,30,315,337,0,0,12,0.73,91,5,125,0,0,0,0,0,0,0,36,36,35,33,0,0,0,0,35,36,31,30,32,35,35,35,0,600207,0,0,0,0,-0.644,0.857,1.072,38.81,-10.6050516,1882.1,21.9,23.783468,38.036204,356.3,0,0,-63,84,0,0,0,0,1,1,1,0,0,0,1,1,0,0,0,0,1,0,0,0,0,0,0,0,0,0,0,0,0,0,0,0,0,0,0,0,1,1,1,0,1,0,0,0,0,0,0,0,0,0,0,1,0,1,0,0,0,0
17:08:35.840,358.24,6,7,2,1,40,37,112,12,2,1,-1400,-1389,0,0,1,1,1,0,0,1,0,0,100,4,65,1207,0,0,322,240,0,3.83,3.92,3.9,68,49,87,32,36,34,4028,567.072,0,0,0,5,38,40,29,11,23,30,315,337,0,0,10,0.92,97,19,185,0,0,0,0,0,0,0,36,36,35,33,0,0,0,0,35,36,31,30,32,35,35,35,0,600207,0,0,0,0,-0.642,0.864,1.076,38.83,-10.7410138,1881.3,21.9,23.783468,38.036204,356.3,0,0,-64,85,0,0,0,0,1,1,1,0,0,0,1,1,0,0,0,0,1,0,0,0,0,0,0,0,0,0,0,0,0,0,0,0,0,0,0,0,1,1,1,0,1,0,0,0,0,0,0,0,0,0,0,1,0,1,0,0,0,0
17:08:35.860,358.36,6,7,2,1,40,37,112,12,2,1,-1400,-1389,0,0,1,1,1,0,0,1,0,0,100,4,65,1207,0,0,322,240,0,3.83,3.92,3.9,68,49,87,32,36,34,4028,567.072,0,0,0,5,38,40,29,11,23,30,315,337,0,0,10,0.92,97,19,185,0,0,0,0,0,0,0,36,36,35,33,0,0,0,0,35,36,31,30,32,35,35,35,0,600207,0,0,0,0,-0.626,0.869,1.071,38.85,-10.7410138,1881.3,21.1,23.783468,38.036208,2.6,0,0,-64,86,0,0,0,0,1,1,1,0,0,0,1,1,0,0,0,0,1,0,0,0,0,0,0,0,0,0,0,0,0,0,0,0,0,0,0,0,1,1,1,0,1,0,0,0,0,0,0,0,0,0,0,1,0,1,0,0,0,0
17:08:35.880,358.48,6,7,2,1,40,37,112,12,2,1,-1400,-1389,0,0,1,1,1,0,0,1,0,0,100,4,65,1274,0,0,315,232,0,3.83,3.92,3.9,68,49,87,32,36,34,4028,567.072,0,0,0,5,38,40,29,11,23,30,315,337,0,0,10,0.92,97,10,246,0,0,0,0,0,0,0,36,36,36,34,0,0,0,0,34,36,31,30,33,35,35,35,0,600207,0,0,0,0,-0.606,0.848,1.042,38.87,-10.4690894,1882.9,21.1,23.783468,38.036208,2.6,0,0,-62,86,0,0,0,0,1,1,1,0,0,0,1,1,0,0,0,0,1,0,0,0,0,0,0,0,0,0,0,0,0,0,0,0,0,0,0,0,1,1,1,0,1,0,0,0,0,0,0,0,0,0,0,1,0,1,0,0,0,0
17:08:35.900,358.6,6,7,2,1,40,37,112,12,2,1,-1400,-1389,0,0,1,1,1,0,0,1,0,0,100,4,65,1274,0,0,315,232,0,3.83,3.92,3.9,68,49,87,32,36,34,4028,567.072,0,0,0,5,38,40,28,67,20,37,292,247,0,0,10,0.92,97,10,246,0,0,0,0,0,0,0,36,36,36,34,0,0,0,0,34,36,31,30,32,35,35,35,0,600207,0,0,0,0,-0.582,0.828,1.012,38.89,-10.0612028,2835.5,20.9,23.783468,38.036208,7,0,0,-60,84,0,0,0,0,1,1,1,0,0,0,1,1,0,0,0,0,1,0,0,0,0,0,0,0,0,0,0,0,0,0,0,0,0,0,0,0,1,1,1,0,1,0,0,0,0,0,0,0,0,0,0,1,0,1,0,0,0,0
17:08:35.920,358.71,6,7,2,1,40,37,112,12,2,1,-1400,-1389,0,0,1,1,1,0,0,1,0,0,100,4,65,1274,0,0,315,232,0,3.83,3.92,3.9,68,49,87,32,36,34,4028,567.072,0,0,0,5,38,40,28,67,20,37,292,247,0,0,10,0.92,97,10,246,0,0,0,0,0,0,0,36,36,36,34,0,0,0,0,34,35,31,30,32,35,35,35,0,600207,0,0,0,0,-0.56,0.822,0.995,38.91,-9.3813918,2839.2,20.8,23.783468,38.036208,7,0,0,-58,82,0,0,0,0,1,1,1,0,0,0,1,1,0,0,0,0,1,0,0,0,0,0,0,0,0,0,0,0,0,0,0,0,0,0,0,0,1,1,1,0,1,0,0,0,0,0,0,0,0,0,0,1,0,1,0,0,0,0
17:08:35.940,358.83,6,7,1,1,40,37,112,12,2,1,-1400,-1389,0,0,1,1,1,0,0,1,0,0,100,4,65,1274,0,0,315,232,0,3.83,3.92,3.9,68,49,87,32,36,34,3509,567.072,0,0,0,5,38,40,28,67,20,37,292,247,0,0,9,0.21,97,12,47,0,0,0,0,0,0,0,36,36,36,34,0,0,0,0,34,35,31,30,33,35,35,35,0,600207,0,0,0,0,-0.557,0.82,0.991,38.93,-8.9735052,2841.5,20.8,23.783468,38.036208,7,0,0,-56,82,0,0,0,0,1,1,1,0,0,0,1,1,0,0,0,0,1,0,0,0,0,0,0,0,0,0,0,0,0,0,0,0,0,0,0,0,1,1,1,0,1,0,0,0,0,0,0,0,0,0,0,1,0,1,0,0,0,0
17:08:35.960,358.94,6,7,1,1,40,37,112,12,2,1,-1400,-1389,0,0,1,1,1,0,0,1,0,0,100,4,65,1274,0,0,315,232,0,3.83,3.92,3.9,68,49,87,32,36,34,3509,567.072,0,0,0,5,38,40,28,67,20,37,292,247,0,0,9,0.21,97,12,47,0,0,0,0,0,0,0,36,36,36,34,0,0,0,0,34,35,31,30,33,35,35,35,0,600207,0,0,0,0,-0.569,0.819,0.997,38.95,-8.837543,2842.2,20.7,23.783468,38.036216,10.2,0,0,-55,82,0,0,0,0,1,1,1,0,0,0,1,1,0,0,0,0,1,0,0,0,0,0,0,0,0,0,0,0,0,0,0,0,0,0,0,0,1,1,1,0,1,0,0,0,0,0,0,0,0,0,0,1,0,1,0,0,0,0
17:08:35.980,359.06,6,7,1,1,40,37,112,12,2,1,-1400,-1389,0,0,1,1,1,0,0,1,0,0,100,4,65,1274,0,0,315,232,0,3.83,3.92,3.9,68,49,87,32,36,34,3509,567.072,0,0,0,5,38,40,28,67,20,37,292,247,0,0,9,0.21,97,12,47,0,0,0,0,0,0,0,35,36,36,34,0,0,0,0,34,34,31,30,33,35,35,35,0,600207,0,0,0,0,-0.58,0.833,1.015,38.97,-8.9735052,2841.5,20.7,23.783468,38.036216,10.2,0,0,-56,81,0,0,0,0,1,1,1,0,0,0,1,1,0,0,0,0,1,0,0,0,0,0,0,0,0,0,0,0,0,0,0,0,0,0,0,0,1,1,1,0,1,0,0,0,0,0,0,0,0,0,0,1,0,1,0,0,0,0
17:08:36.000,359.17,6,7,1,1,40,37,112,12,2,1,-1400,-1389,0,0,1,1,1,0,0,1,0,0,100,4,65,975,0,0,300,232,0,3.83,3.92,3.9,68,49,87,32,36,34,3509,567.072,0,0,0,5,38,40,28,67,20,37,292,247,0,0,9,0.21,97,20,105,0,0,0,0,0,0,0,35,36,36,34,0,0,0,0,34,34,31,30,32,35,35,35,0,600207,0,0,0,0,-0.585,0.847,1.029,38.99,-9.3813918,2839.2,20.4,23.783468,38.036216,15.9,0,0,-58,83,0,0,0,0,1,1,1,0,0,0,1,1,0,0,0,0,1,0,0,0,0,0,0,0,0,0,0,0,0,0,0,0,0,0,0,0,1,1,1,0,1,0,0,0,0,0,0,0,0,0,0,1,0,1,0,0,0,0
17:08:36.020,359.28,6,7,1,1,40,37,112,12,2,1,-1400,-1389,0,0,1,1,1,0,0,1,0,0,100,4,65,975,0,0,300,232,0,3.91,3.95,3.94,68,49,87,32,36,34,3509,567.072,0,0,0,5,38,40,28,53,21,63,292,217,0,0,9,0.21,97,20,105,0,0,0,0,0,0,0,35,36,36,34,0,0,0,0,34,34,31,30,32,35,35,35,0,600207,0,0,0,0,-0.583,0.859,1.038,39.01,-9.3813918,1350.6,20.4,23.783468,38.036216,15.9,0,0,-58,84,0,0,0,0,1,1,1,0,0,0,1,1,0,0,0,0,1,0,0,0,0,0,0,0,0,0,0,0,0,0,0,0,0,0,0,0,1,1,1,0,1,0,0,0,0,0,0,0,0,0,0,1,0,1,0,0,0,0
17:08:36.040,359.4,16,20,0,0,40,37,112,12,2,1,-1400,-1389,0,0,1,1,1,0,0,1,0,0,100,4,65,975,0,0,300,232,0,3.91,3.95,3.94,68,49,87,32,36,34,5072,567.071,0,0,0,5,38,40,28,53,21,63,292,217,0,0,9,0.21,97,20,105,0,0,0,0,0,0,0,36,36,36,33,0,0,0,0,35,35,31,30,32,35,35,35,0,600207,0,0,0,0,-0.575,0.855,1.03,39.03,-9.3813918,1350.6,20.4,23.783468,38.036216,15.9,0,0,-58,85,0,0,0,0,1,1,1,0,0,0,1,1,0,0,0,0,1,0,0,0,0,0,0,0,0,0,0,0,0,0,0,0,0,0,0,0,1,1,1,0,1,0,0,0,0,0,0,0,0,0,0,1,0,1,0,0,0,0
17:08:36.060,359.51,16,20,0,0,40,37,112,12,2,1,-3800,-1389,0,0,1,1,1,0,0,1,0,0,100,4,65,975,0,0,300,232,0,3.91,3.95,3.94,68,49,87,32,36,34,5072,567.071,0,0,0,5,38,40,28,53,21,63,292,217,0,0,10,0.47,96,16,149,0,0,0,0,0,0,0,36,36,36,33,0,0,0,0,35,35,31,30,32,35,35,35,0,600207,0,0,0,0,-0.566,0.851,1.022,39.05,-9.1094674,1352.6,20.2,23.783468,38.036216,22.3,0,0,-57,85,0,0,0,0,1,1,1,0,0,0,1,1,0,0,0,0,1,0,0,0,0,0,0,0,0,0,0,0,0,0,0,0,0,0,0,0,1,1,1,0,1,0,0,0,0,0,0,0,0,0,0,1,0,1,0,0,0,0
17:08:36.080,359.62,16,20,0,0,40,37,112,12,2,1,-3800,-1389,0,0,1,1,1,0,0,1,0,0,100,4,65,975,0,0,300,232,0,3.91,3.95,3.94,68,49,87,32,36,34,5072,567.071,0,0,0,5,38,40,28,53,21,63,292,217,0,0,10,0.47,96,16,149,0,0,0,0,0,0,0,36,36,36,33,0,0,0,0,35,35,31,30,32,35,35,35,0,600207,0,0,0,0,-0.55,0.846,1.009,39.07,-8.9735052,1353.6,20.2,23.783468,38.036216,22.3,0,0,-56,85,0,0,0,0,1,1,1,0,0,0,1,1,0,0,0,0,1,0,0,0,0,0,0,0,0,0,0,0,0,0,0,0,0,0,0,0,1,1,1,0,1,0,0,0,0,0,0,0,0,0,0,1,0,1,0,0,0,0
17:08:36.100,359.73,16,20,0,0,40,37,112,12,2,1,-3800,-1389,0,0,1,1,1,0,0,1,0,0,100,4,65,1004,0,0,300,225,0,3.91,3.95,3.94,68,49,87,32,36,34,5072,567.071,0,0,0,5,38,40,28,53,21,63,292,217,0,0,10,0.47,96,5,211,0,0,0,0,0,0,0,36,36,36,34,0,0,0,0,35,35,31,29,32,35,35,35,0,600207,0,0,0,0,-0.529,0.841,0.994,39.09,-8.837543,1354.6,19.8,23.783468,38.036228,25.5,0,0,-55,84,0,0,0,0,1,1,1,0,0,0,1,1,0,0,0,0,1,0,0,0,0,0,0,0,0,0,0,0,0,0,0,0,0,0,0,0,1,1,1,0,1,0,0,0,0,0,0,0,0,0,0,1,0,1,0,0,0,0
17:08:36.120,359.84,16,20,0,0,40,37,112,12,2,1,-3800,-1389,0,0,1,1,1,0,0,1,0,0,100,4,65,1004,0,0,300,225,0,3.91,3.95,3.94,68,49,87,32,36,34,5072,567.071,0,0,0,5,38,40,27,98,23,59,285,217,0,0,10,0.47,96,5,211,0,0,0,0,0,0,0,36,36,36,34,0,0,0,0,35,35,31,30,32,35,35,36,0,600207,0,0,0,0,-0.509,0.822,0.967,39.11,-7.8858076,1746.4,19.8,23.783468,38.036228,25.5,0,0,-52,84,0,0,0,0,1,1,1,0,0,0,1,1,0,0,0,0,1,0,0,0,0,0,0,0,0,0,0,0,0,0,0,0,0,0,0,0,1,1,1,0,1,0,0,0,0,0,0,0,0,0,0,1,0,1,0,0,0,0
17:08:36.140,359.95,16,20,0,0,40,37,112,12,2,1,-3800,-1389,0,0,1,1,1,0,0,1,0,0,100,4,65,1004,0,0,300,225,0,3.91,3.95,3.94,68,49,87,32,36,34,8527,567.071,0,0,0,5,38,40,27,98,23,59,285,217,0,0,10,0.47,96,5,211,0,0,0,0,0,0,0,36,37,36,34,0,0,0,0,35,35,31,30,32,35,35,36,0,600207,0,0,0,0,-0.491,0.804,0.942,39.13,-7.6138832,1748.3,19.8,23.783468,38.036228,25.5,0,0,-50,82,0,0,0,0,1,1,1,0,0,0,1,1,0,0,0,0,1,0,0,0,0,0,0,0,0,0,0,0,0,0,0,0,0,0,0,0,1,1,1,0,1,0,0,0,0,0,0,0,0,0,0,1,0,1,0,0,0,0
17:08:36.160,360.06,16,20,0,0,40,37,112,12,2,1,-3800,-1389,0,0,1,1,1,0,0,1,0,0,100,4,65,1004,0,0,300,225,0,3.91,3.95,3.94,68,49,87,32,36,34,8527,567.071,0,0,0,5,38,40,27,98,23,59,285,217,0,0,10,0.47,96,6,6,0,0,0,0,0,0,0,36,37,36,34,0,0,0,0,34,35,31,30,32,35,35,36,0,600207,0,0,0,0,-0.486,0.823,0.956,39.15,-7.477921,1749.2,19.8,23.783468,38.036228,29,0,0,-49,80,0,0,0,0,1,1,1,0,0,0,1,1,0,0,0,0,1,0,0,0,0,0,0,0,0,0,0,0,0,0,0,0,0,0,0,0,1,1,1,0,1,0,0,0,0,0,0,0,0,0,0,1,0,1,0,0,0,0
17:08:36.180,360.17,16,20,0,0,40,37,112,12,2,1,-3800,-3799,0,0,1,1,1,0,0,1,0,0,100,4,65,1004,0,0,300,225,0,3.91,3.95,3.94,68,49,87,32,36,34,8527,567.071,0,0,0,5,38,40,27,98,23,59,285,217,0,0,10,0.47,96,6,6,0,0,0,0,0,0,0,35,36,36,33,0,0,0,0,34,34,31,30,32,35,35,35,0,600207,0,0,0,0,-0.496,0.841,0.976,39.17,-7.3419588,1750.2,19.8,23.783468,38.036228,29,0,0,-48,82,0,0,0,0,1,1,1,0,0,0,1,1,0,0,0,0,1,0,0,0,0,0,0,0,0,0,0,0,0,0,0,0,0,0,0,0,1,1,1,0,1,0,0,0,0,0,0,0,0,0,0,1,0,1,0,0,0,0
17:08:36.200,360.28,16,20,0,0,40,37,112,12,2,1,-3800,-3799,0,0,1,1,1,0,0,1,0,0,100,4,65,977,0,0,300,225,0,3.91,3.95,3.94,68,49,87,32,36,34,8527,567.071,0,0,0,5,38,40,27,98,23,59,285,217,0,0,12,0.13,95,21,58,0,0,0,0,0,0,0,35,36,36,33,0,0,0,0,34,34,31,30,32,35,35,35,0,600207,0,0,0,0,-0.491,0.837,0.97,39.19,-7.477921,1749.2,20.2,23.783488,38.036228,34.2,0,0,-49,84,0,0,0,0,1,1,1,0,0,0,1,1,0,0,0,0,1,0,0,0,0,0,0,0,0,0,0,0,0,0,0,0,0,0,0,0,1,1,1,0,1,0,0,0,0,0,0,0,0,0,0,1,0,1,0,0,0,0
17:08:36.220,360.4,16,20,0,0,40,37,112,12,2,1,-3800,-3799,0,0,1,1,1,0,0,1,0,0,100,4,65,977,0,0,300,225,0,3.91,3.95,3.94,68,49,87,32,36,34,8527,567.071,0,0,0,5,38,40,28,31,26,70,292,217,0,0,12,0.13,95,21,58,0,0,0,0,0,0,0,35,36,36,33,0,0,0,0,34,34,31,30,32,35,35,35,0,600207,0,0,0,0,-0.483,0.829,0.959,39.21,-7.8858076,459.8,20.2,23.783488,38.036228,34.2,0,0,-49,83,0,0,0,0,1,1,1,0,0,0,1,1,0,0,0,0,1,0,0,0,0,0,0,0,0,0,0,0,0,0,0,0,0,0,0,0,1,1,1,0,1,0,0,0,0,0,0,0,0,0,0,1,0,1,0,0,0,0
17:08:36.240,360.51,16,20,0,0,40,37,112,12,2,1,-3800,-3799,0,0,1,1,1,0,0,1,0,0,100,4,65,977,0,0,300,225,0,3.91,3.95,3.94,68,49,88,32,36,34,8691,566.551,0,0,0,5,38,40,28,31,26,70,292,217,0,0,12,0.13,95,21,58,0,0,0,0,0,0,0,36,36,36,33,0,0,0,0,34,34,31,30,32,35,35,35,0,600207,0,0,0,0,-0.473,0.824,0.95,39.23,-7.7498454,460.7,20.2,23.783488,38.036228,34.2,0,0,-48,82,0,0,0,0,1,1,1,0,0,0,1,1,0,0,0,0,1,0,0,0,0,0,0,0,0,0,0,0,0,0,0,0,0,0,0,0,1,1,1,0,1,0,0,0,0,0,0,0,0,0,0,1,0,1,0,0,0,0
17:08:36.260,360.62,16,20,0,0,40,37,112,12,2,1,-3800,-3799,0,0,1,1,1,0,0,1,0,0,100,4,65,977,0,0,300,225,0,3.91,3.95,3.94,68,49,88,32,36,34,8691,566.551,0,0,0,5,38,40,28,31,26,70,292,217,0,0,12,0.13,95,6,112,0,0,0,0,0,0,0,36,36,36,33,0,0,0,0,34,34,31,30,32,35,35,35,0,600207,0,0,0,0,-0.463,0.819,0.941,39.25,-7.6138832,461.7,20.2,23.783488,38.036232,38,0,0,-47,82,0,0,0,0,1,1,1,0,0,0,1,1,0,0,0,0,1,0,0,0,0,0,0,0,0,0,0,0,0,0,0,0,0,0,0,0,1,1,1,0,1,0,0,0,0,0,0,0,0,0,0,1,0,1,0,0,0,0
17:08:36.280,360.73,16,20,0,0,40,37,112,12,2,1,-3800,-3799,0,0,1,1,1,0,0,1,0,0,100,4,65,977,0,0,300,225,0,3.91,3.95,3.94,68,49,88,32,36,34,8691,566.551,0,0,0,5,38,40,28,31,26,70,292,217,0,0,12,0.13,95,6,112,0,0,0,0,0,0,0,36,36,36,33,0,0,0,0,34,34,31,30,32,35,35,35,0,600207,0,0,0,0,-0.454,0.815,0.933,39.27,-7.3419588,463.7,20.2,23.783488,38.036232,38,0,0,-46,81,0,0,0,0,1,1,1,0,0,0,1,1,0,0,0,0,1,0,0,0,0,0,0,0,0,0,0,0,0,0,0,0,0,0,0,0,1,1,1,0,1,0,0,0,0,0,0,0,0,0,0,1,0,1,0,0,0,0
17:08:36.300,360.85,16,20,0,0,40,37,112,12,2,1,-3800,-3799,0,0,1,1,1,0,0,1,0,0,100,4,65,1006,0,0,300,225,0,3.91,3.95,3.94,68,49,88,32,36,34,8691,566.551,0,0,0,5,38,40,28,31,26,70,292,217,0,0,12,0.13,95,6,112,0,0,0,0,0,0,0,35,36,36,34,0,0,0,0,34,35,31,30,32,35,35,35,0,600207,0,0,0,0,-0.448,0.816,0.931,39.29,-7.2059966,464.7,20.6,23.783488,38.036232,42.7,0,0,-45,81,0,0,0,0,1,1,1,0,0,0,1,1,0,0,0,0,1,0,0,0,0,0,0,0,0,0,0,0,0,0,0,0,0,0,0,0,1,1,1,0,1,0,0,0,0,0,0,0,0,0,0,1,0,1,0,0,0,0
17:08:36.320,360.96,16,20,0,0,40,37,112,12,2,1,-3800,-3799,0,0,1,1,1,0,0,1,0,0,100,4,65,1006,0,0,300,225,0,3.91,3.95,3.94,68,49,88,32,36,34,8691,566.551,0,0,0,5,38,40,28,0,25,95,285,225,0,0,12,0.46,96,8,164,0,0,0,0,0,0,0,35,36,36,34,0,0,0,0,34,35,31,30,32,35,35,35,0,600207,0,0,0,0,-0.451,0.836,0.95,39.31,-7.0700344,901.7,20.6,23.783488,38.036232,42.7,0,0,-44,81,0,0,0,0,1,1,1,0,0,0,1,1,0,0,0,0,1,0,0,0,0,0,0,0,0,0,0,0,0,0,0,0,0,0,0,0,1,1,1,0,1,0,0,0,0,0,0,0,0,0,0,1,0,1,0,0,0,0
17:08:36.340,361.08,16,20,0,0,40,37,112,12,2,1,-3800,-3799,0,0,1,1,1,0,0,1,0,0,100,4,65,1006,0,0,300,225,0,3.91,3.95,3.94,68,49,88,32,36,34,8772,566.551,0,0,0,5,38,40,28,0,25,95,285,225,0,0,12,0.46,96,8,164,0,0,0,0,0,0,0,35,36,36,34,0,0,0,0,35,35,31,30,32,35,35,35,0,600207,0,0,0,0,-0.454,0.855,0.968,39.33,-7.2059966,900.8,20.6,23.783488,38.036232,42.7,0,0,-45,83,0,0,0,0,1,1,1,0,0,0,1,1,0,0,0,0,1,0,0,0,0,0,0,0,0,0,0,0,0,0,0,0,0,0,0,0,1,1,1,0,1,0,0,0,0,0,0,0,0,0,0,1,0,1,0,0,0,0
17:08:36.360,361.19,19,20,0,0,40,37,112,12,2,1,-3800,-3799,0,0,1,1,1,0,0,1,0,0,100,4,65,1006,0,0,300,225,0,3.91,3.95,3.94,68,49,88,32,36,34,8772,566.551,0,0,0,5,38,40,28,0,25,95,285,225,0,0,12,0.46,96,2,214,0,0,0,0,0,0,0,36,36,36,34,0,0,0,0,35,35,31,30,32,35,35,35,0,600207,0,0,0,0,-0.457,0.844,0.96,39.35,-7.2059966,900.8,20.4,23.783488,38.036232,47.9,0,0,-45,85,0,0,0,0,1,1,1,0,0,0,1,1,0,0,0,0,1,0,0,0,0,0,0,0,0,0,0,0,0,0,0,0,0,0,0,0,1,1,1,0,1,0,0,0,0,0,0,0,0,0,0,1,0,1,0,0,0,0
17:08:36.380,361.3,19,20,0,0,40,37,112,12,2,1,-4000,-3799,0,0,1,1,1,0,0,1,0,0,100,4,65,1006,0,0,300,225,0,3.91,3.95,3.94,68,49,88,32,36,34,8772,566.551,0,0,0,5,38,40,28,0,25,95,285,225,0,0,12,0.46,96,2,214,0,0,0,0,0,0,0,36,36,36,34,0,0,0,0,35,35,31,30,33,35,34,35,0,600207,0,0,0,0,-0.459,0.829,0.948,39.37,-7.2059966,900.8,20.4,23.783488,38.036232,47.9,0,0,-45,84,0,0,0,0,1,1,1,0,0,0,1,1,0,0,0,0,1,0,0,0,0,0,0,0,0,0,0,0,0,0,0,0,0,0,0,0,1,1,1,0,1,0,0,0,0,0,0,0,0,0,0,1,0,1,0,0,0,0
17:08:36.400,361.42,19,20,0,0,40,37,112,12,2,1,-4000,-3799,0,0,1,1,1,0,0,1,0,0,100,4,65,1006,0,0,300,225,0,3.91,3.95,3.94,68,49,88,32,36,34,8772,566.551,0,0,0,5,38,40,28,0,25,95,285,225,0,0,12,0.46,96,2,214,0,0,0,0,0,0,0,36,36,36,34,0,0,0,0,34,35,31,30,33,35,34,35,0,600207,0,0,0,0,-0.454,0.815,0.933,39.39,-7.2059966,900.8,20.2,23.783488,38.036232,52.2,0,0,-45,82,0,0,0,0,1,1,1,0,0,0,1,1,0,0,0,0,1,0,0,0,0,0,0,0,0,0,0,0,0,0,0,0,0,0,0,0,1,1,1,0,1,0,0,0,0,0,0,0,0,0,0,1,0,1,0,0,0,0
17:08:36.420,361.53,19,20,0,0,40,37,112,12,2,1,-4000,-3799,0,0,1,1,1,0,0,1,0,0,100,4,65,1099,0,0,307,225,0,3.91,3.95,3.94,68,49,88,32,36,34,8772,566.551,0,0,0,5,38,40,28,56,24,69,292,315,0,0,11,0.38,97,2,13,0,0,0,0,0,0,0,36,36,36,34,0,0,0,0,34,35,31,30,33,35,35,35,0,600207,0,0,0,0,-0.435,0.813,0.922,39.41,-7.2059966,-2455.2,20.2,23.783488,38.036232,52.2,0,0,-45,81,0,0,0,0,1,1,1,0,0,0,1,1,0,0,0,0,1,0,0,0,0,0,0,0,0,0,0,0,0,0,0,0,0,0,0,0,1,1,1,0,1,0,0,0,0,0,0,0,0,0,0,1,0,1,0,0,0,0
17:08:36.440,361.64,19,20,0,0,40,37,112,12,2,1,-4000,-3799,0,0,1,1,1,0,0,1,0,0,100,4,65,1099,0,0,307,225,0,3.91,3.95,3.94,68,49,88,32,36,34,10429,566.442,0,0,0,5,38,40,28,56,24,69,292,315,0,0,11,0.38,97,2,13,0,0,0,0,0,0,0,35,36,36,33,0,0,0,0,34,35,31,30,32,35,35,35,0,600207,0,0,0,0,-0.417,0.815,0.915,39.43,-6.9340722,-2453.5,20.2,23.783488,38.036232,52.2,0,0,-43,81,0,0,0,0,1,1,1,0,0,0,1,1,0,0,0,0,1,0,0,0,0,0,0,0,0,0,0,0,0,0,0,0,0,0,0,0,1,1,1,0,1,0,0,0,0,0,0,0,0,0,0,1,0,1,0,0,0,0
17:08:36.460,361.75,19,24,0,0,40,37,112,12,2,1,-4000,-3799,0,0,1,1,1,0,0,1,0,0,100,4,65,1099,0,0,307,225,0,3.91,3.95,3.94,68,49,88,32,36,34,10429,566.442,0,0,0,5,38,40,28,56,24,69,292,315,0,0,11,0.38,97,4,64,0,0,0,0,0,0,0,35,36,36,33,0,0,0,0,34,34,31,30,32,35,35,35,0,600207,0,0,0,0,-0.419,0.817,0.918,39.45,-6.5261856,-2450.9,20.4,23.783488,38.036232,55.9,0,0,-41,81,0,0,0,0,1,1,1,0,0,0,1,1,0,0,0,0,1,0,0,0,0,0,0,0,0,0,0,0,0,0,0,0,0,0,0,0,1,1,1,0,1,0,0,0,0,0,0,0,0,0,0,1,0,1,0,0,0,0
17:08:36.480,361.87,19,24,0,0,40,37,112,12,2,1,-4400,-4208,0,0,1,1,1,0,0,1,0,0,100,4,65,1099,0,0,307,225,0,3.91,3.95,3.94,68,49,88,32,36,34,10429,566.442,0,0,0,5,38,40,28,56,24,69,292,315,0,0,11,0.38,97,4,64,0,0,0,0,0,0,0,35,36,36,33,0,0,0,0,34,34,31,30,32,35,35,36,0,600207,0,0,0,0,-0.425,0.819,0.923,39.47,-6.5261856,-2450.9,20.4,23.783488,38.036232,55.9,0,0,-41,81,0,0,0,0,1,1,1,0,0,0,1,1,0,0,0,0,1,0,0,0,0,0,0,0,0,0,0,0,0,0,0,0,0,0,0,0,1,1,1,0,1,0,0,0,0,0,0,0,0,0,0,1,0,1,0,0,0,0
17:08:36.500,361.98,19,24,0,0,40,37,112,12,2,1,-4400,-4208,0,0,1,1,1,0,0,1,0,0,100,4,65,1099,0,0,307,225,0,3.91,3.95,3.94,68,49,88,32,36,34,10429,566.442,0,0,0,5,38,40,28,56,24,69,292,315,0,0,11,0.38,97,4,64,0,0,0,0,0,0,0,35,36,36,33,0,0,0,0,34,34,31,30,32,35,35,36,0,600207,0,0,0,0,-0.43,0.82,0.926,39.49,-6.79811,-2452.6,20.6,23.783488,38.03624,59.2,0,0,-42,81,0,0,0,0,1,1,1,0,0,0,1,1,0,0,0,0,1,0,0,0,0,0,0,0,0,0,0,0,0,0,0,0,0,0,0,0,1,1,1,0,1,0,0,0,0,0,0,0,0,0,0,1,0,1,0,0,0,0
17:08:36.520,362.09,19,24,0,0,40,37,112,12,2,1,-4400,-4208,0,0,1,1,1,0,0,1,0,0,100,4,65,1132,0,0,307,225,0,3.91,3.95,3.94,68,49,88,32,36,34,10429,566.442,0,0,0,5,38,40,28,60,24,52,300,322,0,0,11,0.38,97,4,64,0,0,0,0,0,0,0,35,36,36,33,0,0,0,0,34,34,31,30,32,35,35,36,0,600207,0,0,0,0,-0.425,0.817,0.921,39.51,-6.9340722,-2453.5,20.6,23.783488,38.03624,59.2,0,0,-43,82,0,0,0,0,1,1,1,0,0,0,1,1,0,0,0,0,1,0,0,0,0,0,0,0,0,0,0,0,0,0,0,0,0,0,0,0,1,1,1,0,1,0,0,0,0,0,0,0,0,0,0,1,0,1,0,0,0,0
17:08:36.540,362.21,19,24,0,0,40,37,112,12,2,1,-4400,-4208,0,0,1,1,1,0,0,1,0,0,100,4,65,1132,0,0,307,225,0,3.91,3.95,3.94,68,49,88,32,36,34,11611,566.442,0,0,0,5,38,40,28,60,24,52,300,322,0,0,11,0.38,97,14,118,0,0,0,0,0,0,0,36,36,36,34,0,0,0,0,34,35,31,29,32,35,35,35,0,600207,0,0,0,0,-0.412,0.814,0.912,39.53,-6.79811,-737,20.6,23.783488,38.03624,59.2,0,0,-42,81,0,0,0,0,1,1,1,0,0,0,1,1,0,0,0,0,1,0,0,0,0,0,0,0,0,0,0,0,0,0,0,0,0,0,0,0,1,1,1,0,1,0,0,0,0,0,0,0,0,0,0,1,0,1,0,0,0,0
17:08:36.560,362.32,22,27,0,0,40,37,112,12,2,1,-4400,-4208,0,0,1,1,1,0,0,1,0,0,100,4,65,1132,0,0,307,225,0,3.91,3.95,3.94,68,49,88,32,36,34,11611,566.442,0,0,0,5,38,40,28,60,24,52,300,322,0,0,11,0.38,97,14,118,0,0,0,0,0,0,0,36,37,37,34,0,0,0,0,34,35,31,29,32,35,35,35,0,600207,0,0,0,0,-0.4,0.818,0.911,39.55,-6.5261856,-735.3,20.6,23.7835,38.03624,64,0,0,-41,81,0,0,0,0,1,1,1,0,0,0,1,1,0,0,0,0,1,0,0,0,0,0,0,0,0,0,0,0,0,0,0,0,0,0,0,0,1,1,1,0,1,0,0,0,0,0,0,0,0,0,0,1,0,1,0,0,0,0
17:08:36.580,362.44,22,27,0,0,40,37,112,12,2,1,-4400,-4208,0,0,1,1,1,0,0,1,0,0,100,4,65,1132,0,0,307,225,0,3.91,3.95,3.94,68,49,88,32,36,34,11611,566.442,0,0,0,5,38,40,28,60,24,52,300,322,0,0,10,0.67,97,5,170,0,0,0,0,0,0,0,36,37,37,34,0,0,0,0,34,35,31,29,32,35,35,35,0,600207,0,0,0,0,-0.39,0.822,0.91,39.57,-6.3902234,-734.4,20.6,23.7835,38.03624,64,0,0,-40,81,0,0,0,0,1,1,1,0,0,0,1,1,0,0,0,0,1,0,0,0,0,0,0,0,0,0,0,0,0,0,0,0,0,0,0,0,1,1,1,0,1,0,0,0,0,0,0,0,0,0,0,1,0,1,0,0,0,0
17:08:36.600,362.55,22,27,0,0,40,37,112,12,2,1,-5000,-4208,0,0,1,1,1,0,0,1,0,0,100,4,65,1132,0,0,307,225,0,3.91,3.95,3.94,68,49,88,32,36,34,11611,566.442,0,0,0,5,38,40,28,60,24,52,300,322,0,0,10,0.67,97,5,170,0,0,0,0,0,0,0,36,36,36,34,0,0,0,0,35,35,31,30,33,35,34,35,0,600207,0,0,0,0,-0.387,0.835,0.92,39.59,-6.2542612,-733.6,21.3,23.7835,38.03624,67.8,0,0,-39,82,0,0,0,0,1,1,1,0,0,0,1,1,0,0,0,0,1,0,0,0,0,0,0,0,0,0,0,0,0,0,0,0,0,0,0,0,1,1,1,0,1,0,0,0,0,0,0,0,0,0,0,1,0,1,0,0,0,0
17:08:36.620,362.67,22,27,0,0,40,37,112,12,2,1,-5000,-4208,0,0,1,1,1,0,0,1,0,0,100,4,65,1154,0,0,307,232,0,3.91,3.95,3.94,68,50,88,32,36,34,11611,566.099,0,0,0,5,38,40,28,64,23,99,307,322,0,0,10,0.67,97,5,170,0,0,0,0,0,0,0,36,37,36,34,0,0,0,0,35,35,31,30,33,35,34,35,0,600207,0,0,0,0,-0.385,0.847,0.93,39.61,-6.3902234,-734.4,21.3,23.7835,38.03624,67.8,0,0,-38,83,0,0,0,0,1,1,1,0,0,0,1,1,0,0,0,0,1,0,0,0,0,0,0,0,0,0,0,0,0,0,0,0,0,0,0,0,1,1,1,0,1,0,0,0,0,0,0,0,0,0,0,1,0,1,0,0,0,0
17:08:36.640,362.79,22,27,0,0,40,37,112,12,2,1,-5000,-4208,0,0,1,1,1,0,0,1,0,0,100,4,65,1154,0,0,307,232,0,3.91,3.95,3.94,68,50,88,32,36,34,12975,566.099,0,0,0,5,37,40,28,64,23,99,307,322,0,0,10,0.67,97,20,232,0,0,0,0,0,0,0,36,37,36,34,0,0,0,0,35,35,31,30,33,35,34,35,0,600207,0,0,0,0,-0.383,0.855,0.937,39.63,-6.3902234,-1413.3,21.3,23.7835,38.03624,67.8,0,0,-38,84,0,0,0,0,1,1,1,0,0,0,1,1,0,0,0,0,1,0,0,0,0,0,0,0,0,0,0,0,0,0,0,0,0,0,0,0,1,1,1,0,1,0,0,0,0,0,0,0,0,0,0,1,0,1,0,0,0,0
17:08:36.660,362.91,22,27,0,0,40,37,112,12,2,1,-5000,-4208,0,0,1,1,1,0,0,1,0,0,100,4,65,1154,0,0,307,232,0,3.91,3.95,3.94,68,50,88,32,36,34,12975,566.099,0,0,0,5,37,40,28,64,23,99,307,322,0,0,10,0.67,97,20,232,0,0,0,0,0,0,0,36,37,37,33,0,0,0,0,35,35,31,29,32,35,35,35,0,600207,0,0,0,0,-0.376,0.859,0.938,39.65,-6.3902234,-1413.3,20.9,23.7835,38.03624,73.3,0,0,-38,85,0,0,0,0,1,1,1,0,0,0,1,1,0,0,0,0,1,0,0,0,0,0,0,0,0,0,0,0,0,0,0,0,0,0,0,0,1,1,1,0,1,0,0,0,0,0,0,0,0,0,0,1,0,1,0,0,0,0
17:08:36.680,363.02,22,27,0,0,40,37,112,12,2,1,-5000,-4208,0,0,1,1,1,0,0,1,0,0,100,4,65,1154,0,0,307,232,0,3.91,3.95,3.94,68,50,88,32,36,34,12975,566.099,0,0,0,5,37,40,28,64,23,99,307,322,0,0,10,0.67,97,20,232,0,0,0,0,0,0,0,36,37,37,33,0,0,0,0,35,35,31,29,32,35,35,35,0,600207,0,0,0,0,-0.367,0.858,0.933,39.67,-5.9823368,-1410.8,20.9,23.7835,38.03624,73.3,0,0,-37,85,0,0,0,0,1,1,1,0,0,0,1,1,0,0,0,0,1,0,0,0,0,0,0,0,0,0,0,0,0,0,0,0,0,0,0,0,1,1,1,0,1,0,0,0,0,0,0,0,0,0,0,1,0,1,0,0,0,0
17:08:36.700,363.14,22,27,0,0,40,37,112,12,2,1,-4600,-4984,0,0,1,1,1,0,0,1,0,0,100,4,65,1154,0,0,307,232,0,3.91,3.95,3.94,68,50,88,32,36,34,12975,566.099,0,0,0,5,37,40,28,64,23,99,307,322,0,0,9,0.94,97,4,42,0,0,0,0,0,0,0,36,37,37,33,0,0,0,0,35,35,31,30,32,35,35,35,0,600207,0,0,0,0,-0.351,0.857,0.926,39.69,-5.8463746,-1410,21.1,23.7835,38.03624,78.2,0,0,-36,85,0,0,0,0,1,1,1,0,0,0,1,1,0,0,0,0,1,0,0,0,0,0,0,0,0,0,0,0,0,0,0,0,0,0,0,0,1,1,1,0,1,0,0,0,0,0,0,0,0,0,0,1,0,1,0,0,0,0
17:08:36.720,363.26,22,27,0,0,40,37,112,12,2,1,-4600,-4984,0,0,1,1,1,0,0,1,0,0,100,4,65,1248,0,0,322,240,0,3.91,3.95,3.94,68,50,88,32,36,34,12975,566.099,0,0,0,5,37,40,28,98,23,70,307,322,0,0,9,0.94,97,4,42,0,0,0,0,0,0,0,36,37,37,33,0,0,0,0,34,34,31,30,33,35,35,36,0,600207,0,0,0,0,-0.336,0.858,0.921,39.71,-5.8463746,-1410,21.1,23.7835,38.03624,78.2,0,0,-35,85,0,0,0,0,1,1,1,0,0,0,1,1,0,0,0,0,1,0,0,0,0,0,0,0,0,0,0,0,0,0,0,0,0,0,0,0,1,1,1,0,1,0,0,0,0,0,0,0,0,0,0,1,0,1,0,0,0,0
17:08:36.740,363.38,22,27,0,0,40,37,112,12,2,1,-4600,-4984,0,0,1,1,1,0,0,1,0,0,100,4,65,1248,0,0,322,240,0,3.91,3.95,3.94,68,50,88,32,36,34,12985,566.099,0,0,0,5,37,40,28,98,23,70,307,322,0,0,9,0.94,97,4,42,0,0,0,0,0,0,0,36,37,37,34,0,0,0,0,34,34,31,30,34,35,35,36,0,600207,0,0,0,0,-0.34,0.864,0.928,39.73,-5.5744502,-3224.2,21.1,23.7835,38.03624,78.2,0,0,-33,85,0,0,0,0,1,1,1,0,0,0,1,1,0,0,0,0,1,0,0,0,0,0,0,0,0,0,0,0,0,0,0,0,0,0,0,0,1,1,1,0,1,0,0,0,0,0,0,0,0,0,0,1,0,1,0,0,0,0
17:08:36.760,363.49,22,27,0,0,40,37,112,12,2,1,-4600,-4984,0,0,1,1,1,0,0,1,0,0,100,4,65,1248,0,0,322,240,0,3.91,3.95,3.94,68,50,88,32,36,34,12985,566.099,0,0,0,5,37,40,28,98,23,70,307,322,0,0,9,0.94,97,32,82,0,0,0,0,0,0,0,36,37,37,34,0,0,0,0,34,34,31,30,34,35,35,36,0,600207,0,0,0,0,-0.344,0.87,0.936,39.75,-5.7104124,-3225,21.3,23.7835,38.036244,81.9,0,0,-34,86,0,0,0,0,1,1,1,0,0,0,1,1,0,0,0,0,1,0,0,0,0,0,0,0,0,0,0,0,0,0,0,0,0,0,0,0,1,1,1,0,1,0,0,0,0,0,0,0,0,0,0,1,0,1,0,0,0,0
17:08:36.780,363.61,19,24,0,0,40,37,112,12,2,1,-4600,-4984,0,0,1,1,1,0,0,1,0,0,100,4,65,1248,0,0,322,240,0,3.91,3.95,3.94,68,50,88,32,36,34,12985,566.099,0,0,0,5,37,40,28,98,23,70,307,322,0,0,9,0.94,97,32,82,0,0,0,0,0,0,0,37,37,37,34,0,0,0,0,34,34,31,30,34,35,35,36,0,600207,0,0,0,0,-0.348,0.873,0.94,39.77,-5.7104124,-3225,21.3,23.7835,38.036244,81.9,0,0,-34,87,0,0,0,0,1,1,1,0,0,0,1,1,0,0,0,0,1,0,0,0,0,0,0,0,0,0,0,0,0,0,0,0,0,0,0,0,1,1,1,0,1,0,0,0,0,0,0,0,0,0,0,1,0,1,0,0,0,0
17:08:36.800,363.73,19,24,0,0,40,37,112,12,2,1,-4400,-4984,0,0,1,1,1,0,0,1,0,0,100,4,65,1248,0,0,322,240,0,3.91,3.95,3.94,68,50,88,32,36,34,12985,566.099,0,0,0,5,37,40,28,98,23,70,307,322,0,0,9,0.39,97,21,147,0,0,0,0,0,0,0,36,37,37,34,0,0,0,0,34,34,31,30,34,36,36,36,0,600207,0,0,0,0,-0.352,0.876,0.944,39.79,-5.7104124,-3225,21.5,23.78352,38.036244,84.6,0,0,-34,87,0,0,0,0,1,1,1,0,0,0,1,1,0,0,0,0,1,0,0,0,0,0,0,0,0,0,0,0,0,0,0,0,0,0,0,0,1,1,1,0,1,0,0,0,0,0,0,0,0,0,0,1,0,1,0,0,0,0
17:08:36.820,363.85,19,24,0,0,40,37,112,12,2,1,-4400,-4984,0,0,1,1,1,0,0,1,0,0,100,4,65,1269,0,0,330,247,0,3.91,3.95,3.94,68,50,88,32,36,34,12985,566.047,0,0,0,5,37,40,29,2,23,59,330,330,0,0,9,0.39,97,21,147,0,0,0,0,0,0,0,36,37,37,34,0,0,0,0,35,35,31,29,34,36,36,36,0,600207,0,0,0,0,-0.355,0.899,0.967,39.81,-5.8463746,-3225.7,21.5,23.78352,38.036244,84.6,0,0,-35,87,0,0,0,0,1,1,1,0,0,0,1,1,0,0,0,0,1,0,0,0,0,0,0,0,0,0,0,0,0,0,0,0,0,0,0,0,1,1,1,0,1,0,0,0,0,0,0,0,0,0,0,1,0,1,0,0,0,0
17:08:36.840,363.97,19,24,0,0,40,37,112,12,2,1,-4400,-4984,0,0,1,1,1,0,0,1,0,0,100,4,65,1269,0,0,330,247,0,3.91,3.95,3.94,68,50,88,32,36,34,12252,566.047,0,0,0,5,37,40,29,2,23,59,330,330,0,0,9,0.39,97,21,147,0,0,0,0,0,0,0,36,37,37,34,0,0,0,0,35,35,31,29,34,36,36,36,0,600207,0,0,0,0,-0.359,0.92,0.988,39.83,-5.8463746,-2366.7,21.5,23.78352,38.036244,84.6,0,0,-35,89,0,0,0,0,1,1,1,0,0,0,1,1,0,0,0,0,1,0,0,0,0,0,0,0,0,0,0,0,0,0,0,0,0,0,0,0,1,1,1,0,1,0,0,0,0,0,0,0,0,0,0,1,0,1,0,0,0,0
17:08:36.860,364.09,19,24,0,0,40,37,112,12,2,1,-4400,-4984,0,0,1,1,1,0,0,1,0,0,100,4,65,1269,0,0,330,247,0,3.91,3.95,3.94,68,50,88,32,36,34,12252,566.047,0,0,0,5,37,40,29,2,23,59,330,330,0,0,9,0.39,97,2,200,0,0,0,0,0,0,0,36,37,37,34,0,0,0,0,35,35,31,29,33,36,36,37,0,600207,0,0,0,0,-0.363,0.914,0.983,39.85,-5.8463746,-2366.7,22,23.78352,38.036244,90.4,0,0,-35,92,0,0,0,0,1,1,1,0,0,0,1,1,0,0,0,0,1,0,0,0,0,0,0,0,0,0,0,0,0,0,0,0,0,0,0,0,1,1,1,0,1,0,0,0,0,0,0,0,0,0,0,1,0,1,0,0,0,0
17:08:36.880,364.21,19,24,0,0,40,37,112,12,2,1,-4400,-4984,0,0,1,1,1,0,0,1,0,0,100,4,65,1269,0,0,330,247,0,3.91,3.95,3.94,68,50,88,32,36,34,12252,566.047,0,0,0,5,37,40,29,2,23,59,330,330,0,0,9,0.39,97,2,200,0,0,0,0,0,0,0,36,37,37,34,0,0,0,0,35,35,31,29,33,36,36,37,0,600207,0,0,0,0,-0.367,0.909,0.98,39.87,-6.3902234,-2369.7,22,23.78352,38.036244,90.4,0,0,-36,91,0,0,0,0,1,1,1,0,0,0,1,1,0,0,0,0,1,0,0,0,0,0,0,0,0,0,0,0,0,0,0,0,0,0,0,0,1,1,1,0,1,0,0,0,0,0,0,0,0,0,0,1,0,1,0,0,0,0
17:08:36.900,364.33,19,24,0,0,40,37,112,12,2,1,-4400,-4984,0,0,1,1,1,0,0,1,0,0,100,4,65,1269,0,0,330,247,0,3.91,3.95,3.94,68,50,88,32,36,34,12252,566.047,0,0,0,5,37,40,29,2,23,59,330,330,0,0,9,0.39,97,5,228,0,0,0,0,0,0,0,36,37,37,34,0,0,0,0,35,35,31,29,33,36,36,37,0,600207,0,0,0,0,-0.367,0.907,0.978,39.89,-6.3902234,-2369.7,21.5,23.78352,38.036244,94,0,0,-36,90,0,0,0,0,1,1,1,0,0,0,1,1,0,0,0,0,1,0,0,0,0,0,0,0,0,0,0,0,0,0,0,0,0,0,0,0,1,1,1,0,1,0,0,0,0,0,0,0,0,0,0,1,0,1,0,0,0,0
17:08:36.920,364.45,19,24,0,0,40,37,112,12,2,1,-4400,-4984,0,0,1,1,1,0,0,1,0,0,100,4,65,1269,0,0,330,247,0,3.91,3.95,3.94,68,50,88,32,36,34,12096,566.047,0,0,0,5,37,40,28,93,22,99,322,337,0,0,9,0.39,97,5,228,0,0,0,0,0,0,0,36,37,37,34,0,0,0,0,35,35,31,29,34,36,36,37,0,600207,0,0,0,0,-0.367,0.919,0.99,39.91,-6.118299,-2368.2,21.5,23.78352,38.036244,94,0,0,-36,90,0,0,0,0,1,1,1,0,0,0,1,1,0,0,0,0,1,0,0,0,0,0,0,0,0,0,0,0,0,0,0,0,0,0,0,0,1,1,1,0,1,0,0,0,0,0,0,0,0,0,0,1,0,1,0,0,0,0
17:08:36.940,364.57,19,24,0,0,40,37,112,12,2,1,-4400,-4984,0,0,1,1,1,0,0,1,0,0,100,4,65,1245,0,0,330,247,0,3.91,3.95,3.94,68,50,88,32,36,34,12096,566.047,0,0,0,5,37,40,28,93,22,99,322,337,0,0,9,0.39,97,5,228,0,0,0,0,0,0,0,36,37,37,34,0,0,0,0,34,35,31,30,34,36,36,37,0,600207,0,0,0,0,-0.367,0.93,1,39.93,-6.118299,-2368.2,21.5,23.78352,38.036244,94,0,0,-36,91,0,0,0,0,1,1,1,0,0,0,1,1,0,0,0,0,1,0,0,0,0,0,0,0,0,0,0,0,0,0,0,0,0,0,0,0,1,1,1,0,1,0,0,0,0,0,0,0,0,0,0,1,0,1,0,0,0,0
17:08:36.960,364.69,19,24,0,0,40,37,112,12,2,1,-4400,-4984,0,0,1,1,1,0,0,1,0,0,100,4,65,1245,0,0,330,247,0,3.91,3.95,3.94,68,50,88,32,36,34,12096,566.047,0,0,0,5,37,40,28,93,22,99,322,337,0,0,9,0.39,97,5,228,0,0,0,0,0,0,0,36,37,38,34,0,0,0,0,34,34,31,30,34,36,36,37,0,600207,0,0,0,0,-0.361,0.941,1.008,39.95,-6.118299,-2398.1,21.5,23.78352,38.036244,98.9,0,0,-36,93,0,0,0,0,1,1,1,0,0,0,1,1,0,0,0,0,1,0,0,0,0,0,0,0,0,0,0,0,0,0,0,0,0,0,0,0,1,1,1,0,1,0,0,0,0,0,0,0,0,0,0,1,0,1,0,0,0,0
17:08:36.980,364.81,19,24,0,0,40,37,112,12,2,1,-4400,-4984,0,0,1,1,1,0,0,1,0,0,100,4,65,1245,0,0,330,247,0,3.91,3.95,3.94,68,50,88,32,36,34,12096,566.047,0,0,0,5,37,40,28,93,22,99,322,337,0,0,10,0.25,97,18,47,0,0,0,0,0,0,0,37,37,38,34,0,0,0,0,34,34,31,30,34,37,37,38,0,600207,0,0,0,0,-0.353,0.934,0.998,39.97,-6.118299,-2398.1,21.5,23.78352,38.036244,98.9,0,0,-36,94,0,0,0,0,1,1,1,0,0,0,1,1,0,0,0,0,1,0,0,0,0,0,0,0,0,0,0,0,0,0,0,0,0,0,0,0,1,1,1,0,1,0,0,0,0,0,0,0,0,0,0,1,0,1,0,0,0,0
17:08:37.000,364.93,19,24,0,0,40,37,112,12,2,1,-4400,-4984,0,0,1,1,1,0,0,1,0,0,100,4,65,1245,0,0,330,247,0,3.91,3.95,3.94,68,50,88,32,36,34,12096,566.047,0,0,0,5,37,40,28,93,22,99,322,337,0,0,10,0.25,97,18,47,0,0,0,0,0,0,0,37,37,38,34,0,0,0,0,34,34,31,30,34,37,37,38,0,600207,0,0,0,0,-0.348,0.926,0.989,39.99,-5.8463746,-2396.5,22.6,23.78352,38.03624,104.3,0,0,-35,93,0,0,0,0,1,1,1,0,0,0,1,1,0,0,0,0,1,0,0,0,0,0,0,0,0,0,0,0,0,0,0,0,0,0,0,0,1,1,1,0,1,0,0,0,0,0,0,0,0,0,0,1,0,1,0,0,0,0
17:08:37.020,365.06,19,24,0,0,40,37,112,12,2,1,-4400,-4412,0,0,1,1,1,0,0,1,0,0,100,4,65,1245,0,0,330,247,0,3.91,3.95,3.94,68,50,89,32,36,34,12096,566.109,0,0,0,5,37,40,28,91,23,12,330,337,0,0,10,0.25,97,18,47,0,0,0,0,0,0,0,36,37,37,34,0,0,0,0,34,34,31,29,34,37,37,38,0,600207,0,0,0,0,-0.358,0.918,0.985,40.01,-5.9823368,-2397.3,22.7,23.78352,38.03624,104.3,0,0,-34,92,0,0,0,0,1,1,1,0,0,0,1,1,0,0,0,0,1,0,0,0,0,0,0,0,0,0,0,0,0,0,0,0,0,0,0,0,1,1,1,0,1,0,0,0,0,0,0,0,0,0,0,1,0,1,0,0,0,0
17:08:37.040,365.19,19,24,0,0,40,37,112,12,2,1,-4400,-4412,0,0,1,1,1,0,0,1,0,0,100,4,65,1306,0,0,337,255,0,3.91,3.95,3.94,68,50,89,32,36,34,12096,566.109,0,0,0,5,37,40,28,91,23,12,330,337,0,0,10,0.25,97,18,105,0,0,0,0,0,0,0,36,37,37,34,0,0,0,0,34,34,31,29,34,37,37,39,0,600207,0,0,0,0,-0.368,0.924,0.995,40.03,-6.2542612,-2398.8,22.7,23.78352,38.03624,104.3,0,0,-35,91,0,0,0,0,1,1,1,0,0,0,1,1,0,0,0,0,1,0,0,0,0,0,0,0,0,0,0,0,0,0,0,0,0,0,0,0,1,1,1,0,1,0,0,0,0,0,0,0,0,0,0,1,0,1,0,0,0,0
17:08:37.060,365.31,19,24,0,0,40,37,112,12,2,1,-4400,-4412,0,0,1,1,1,0,0,1,0,0,100,4,65,1306,0,0,337,255,0,3.91,3.95,3.94,68,50,89,32,36,34,12096,566.109,0,0,0,5,37,40,28,91,23,12,330,337,0,0,10,0.25,97,18,105,0,0,0,0,0,0,0,36,37,37,34,0,0,0,0,34,34,31,29,34,37,37,39,0,600207,0,0,0,0,-0.377,0.953,1.025,40.05,-6.3902234,1149.8,22,23.783536,38.03624,108.3,0,0,-36,92,0,0,0,0,1,1,1,0,0,0,1,1,0,0,0,0,1,0,0,0,0,0,0,0,0,0,0,0,0,0,0,0,0,0,0,0,1,1,1,0,1,0,0,0,0,0,0,0,0,0,0,1,0,1,0,0,0,0
17:08:37.080,365.43,19,24,0,0,40,37,112,12,2,1,-4400,-4412,0,0,1,1,1,0,0,1,0,0,100,4,65,1306,0,0,337,255,0,3.91,3.95,3.94,68,50,89,32,36,34,12096,566.109,0,0,0,5,37,40,28,91,23,12,330,337,0,0,10,0.74,97,3,158,0,0,0,0,0,0,0,36,37,37,34,0,0,0,0,35,35,31,30,35,37,37,41,0,600207,0,0,0,0,-0.383,0.98,1.052,40.07,-6.5261856,1149.1,22,23.783536,38.03624,108.3,0,0,-37,95,0,0,0,0,1,1,1,0,0,0,1,1,0,0,0,0,1,0,0,0,0,0,0,0,0,0,0,0,0,0,0,0,0,0,0,0,1,1,1,0,1,0,0,0,0,0,0,0,0,0,0,1,0,1,0,0,0,0
17:08:37.100,365.55,22,25,0,0,40,37,112,12,2,1,-4400,-4412,0,0,1,1,1,0,0,1,0,0,100,4,65,1306,0,0,337,255,0,3.91,3.95,3.94,68,50,89,32,36,34,12096,566.109,0,0,0,5,37,40,28,91,23,12,330,337,0,0,10,0.74,97,3,158,0,0,0,0,0,0,0,36,37,37,34,0,0,0,0,34,35,31,30,35,37,37,41,0,600207,0,0,0,0,-0.38,0.975,1.046,40.09,-6.6621478,1148.4,22.2,23.783536,38.03624,113.1,0,0,-38,98,0,0,0,0,1,1,1,0,0,0,1,1,0,0,0,0,1,0,0,0,0,0,0,0,0,0,0,0,0,0,0,0,0,0,0,0,1,1,1,0,1,0,0,0,0,0,0,0,0,0,0,1,0,1,0,0,0,0
17:08:37.120,365.68,22,25,0,0,40,37,112,12,2,1,-4800,-4412,0,0,1,1,1,0,0,1,0,0,100,4,65,1306,0,0,337,255,0,3.91,3.95,3.94,68,50,89,32,36,34,13281,566.109,0,0,0,5,37,40,28,78,23,35,345,352,0,0,10,0.74,97,3,158,0,0,0,0,0,0,0,36,37,37,34,0,0,0,0,34,35,31,30,36,38,39,42,0,600207,0,0,0,0,-0.377,0.97,1.041,40.11,-6.6621478,1148.4,22.2,23.783536,38.03624,113.1,0,0,-38,97,0,0,0,0,1,1,1,0,0,0,1,1,0,0,0,0,1,0,0,0,0,0,0,0,0,0,0,0,0,0,0,0,0,0,0,0,1,1,1,0,1,0,0,0,0,0,0,0,0,0,0,1,0,1,0,0,0,0
17:08:37.140,365.8,22,25,0,0,40,37,112,12,2,1,-4800,-4412,0,0,1,1,1,0,0,1,0,0,100,4,65,1300,0,0,345,255,0,3.91,3.95,3.94,68,50,89,32,36,34,13281,566.109,0,0,0,5,37,40,28,78,23,35,345,352,0,0,10,0.74,97,18,212,0,0,0,0,0,0,0,37,37,38,35,0,0,0,0,34,35,31,30,36,38,39,42,0,600207,0,0,0,0,-0.374,0.982,1.051,40.13,-6.5261856,1149.1,22.2,23.783536,38.03624,113.1,0,0,-37,97,0,0,0,0,1,1,1,0,0,0,1,1,0,0,0,0,1,0,0,0,0,0,0,0,0,0,0,0,0,0,0,0,0,0,0,0,1,1,1,0,1,0,0,0,0,0,0,0,0,0,0,1,0,1,0,0,0,0
17:08:37.160,365.93,22,25,0,0,40,37,112,12,2,1,-4800,-4412,0,0,1,1,1,0,0,1,0,0,100,4,65,1300,0,0,345,255,0,3.91,3.95,3.94,68,50,89,32,36,34,13281,566.109,0,0,0,5,37,40,28,78,23,35,345,352,0,0,10,0.74,97,18,212,0,0,0,0,0,0,0,37,38,38,35,0,0,0,0,34,34,31,30,36,38,39,43,0,600207,0,0,0,0,-0.37,0.993,1.06,40.15,-6.5261856,2666.8,22.4,23.783536,38.03624,118.2,0,0,-37,98,0,0,0,0,1,1,1,0,0,0,1,1,0,0,0,0,1,0,0,0,0,0,0,0,0,0,0,0,0,0,0,0,0,0,0,0,1,1,1,0,1,0,0,0,0,0,0,0,0,0,0,1,0,1,0,0,0,0
17:08:37.180,366.05,22,25,0,0,40,37,112,12,2,1,-4800,-4412,0,0,1,1,1,0,0,1,0,0,100,4,65,1300,0,0,345,255,0,3.91,3.95,3.94,68,50,89,32,36,34,13281,566.109,0,0,0,5,37,40,28,78,23,35,345,352,0,0,10,0.74,97,18,212,0,0,0,0,0,0,0,37,38,38,35,0,0,0,0,34,34,31,30,35,38,39,44,0,600207,0,0,0,0,-0.366,1.002,1.067,40.17,-6.5261856,2666.8,22.4,23.783536,38.03624,118.2,0,0,-37,99,0,0,0,0,1,1,1,0,0,0,1,1,0,0,0,0,1,0,0,0,0,0,0,0,0,0,0,0,0,0,0,0,0,0,0,0,1,1,1,0,1,0,0,0,0,0,0,0,0,0,0,1,0,1,0,0,0,0
17:08:37.200,366.17,25,31,0,0,40,37,112,12,2,1,-4800,-4412,0,0,1,1,1,0,0,1,0,0,100,4,65,1300,0,0,345,255,0,3.91,3.95,3.94,68,50,89,32,36,34,13281,566.109,0,0,0,5,37,40,28,78,23,35,345,352,0,0,10,0.14,95,19,1,0,0,0,0,0,0,0,37,38,38,35,0,0,0,0,34,34,31,30,35,38,39,44,0,600207,0,0,0,0,-0.357,1.01,1.071,40.19,-6.3902234,2667.5,22.4,23.783536,38.036232,122.6,0,0,-36,100,0,0,0,0,1,1,1,0,0,0,1,1,0,0,0,0,1,0,0,0,0,0,0,0,0,0,0,0,0,0,0,0,0,0,0,0,1,1,1,0,1,0,0,0,0,0,0,0,0,0,0,1,0,1,0,0,0,0
17:08:37.220,366.3,25,31,0,0,40,37,112,12,2,1,-5800,-5597,0,0,1,1,1,0,0,1,0,0,100,4,65,1300,0,0,345,255,0,3.91,3.95,3.94,68,50,89,32,36,34,16424,565.781,0,0,0,5,37,40,28,84,22,90,352,360,0,0,10,0.14,95,19,1,0,0,0,0,0,0,0,36,37,38,35,0,0,0,0,34,35,31,30,35,38,39,44,0,600207,0,0,0,0,-0.343,1.017,1.073,40.21,-6.2542612,2668.3,22.4,23.783536,38.036232,122.6,0,0,-35,101,0,0,0,0,1,1,1,0,0,0,1,1,0,0,0,0,1,0,0,0,0,0,0,0,0,0,0,0,0,0,0,0,0,0,0,0,1,1,1,0,1,0,0,0,0,0,0,0,0,0,0,1,0,1,0,0,0,0
17:08:37.240,366.42,25,31,0,0,40,37,112,12,2,1,-5800,-5597,0,0,1,1,1,0,0,1,0,0,100,4,65,1366,0,0,352,262,0,3.91,3.95,3.94,68,50,89,32,36,34,16424,565.781,0,0,0,5,37,40,28,84,22,90,352,360,0,0,10,0.14,95,16,60,0,0,0,0,0,0,0,36,37,38,35,0,0,0,0,34,35,31,30,33,35,34,35,0,600207,0,0,0,0,-0.33,1.024,1.076,40.23,-5.9823368,2669.7,22.4,23.783536,38.036232,122.6,0,0,-34,101,0,0,0,0,1,1,1,0,0,0,1,1,0,0,0,0,1,0,0,0,0,0,0,0,0,0,0,0,0,0,0,0,0,0,0,0,1,1,1,0,1,0,0,0,0,0,0,0,0,0,0,1,0,1,0,0,0,0
17:08:37.260,366.55,25,31,0,0,40,37,112,12,2,1,-5800,-5597,0,0,1,1,1,0,0,1,0,0,100,4,65,1366,0,0,352,262,0,3.91,3.95,3.94,68,50,89,32,36,34,16424,565.781,0,0,0,5,37,40,28,84,22,90,352,360,0,0,10,0.14,95,16,60,0,0,0,0,0,0,0,36,37,38,35,0,0,0,0,34,35,31,30,33,35,34,35,0,600207,0,0,0,0,-0.317,1.002,1.051,40.25,-5.8463746,-183.6,22.8,23.783536,38.036232,128.1,0,0,-33,102,0,0,0,0,1,1,1,0,0,0,1,1,0,0,0,0,1,0,0,0,0,0,0,0,0,0,0,0,0,0,0,0,0,0,0,0,1,1,1,0,1,0,0,0,0,0,0,0,0,0,0,1,0,1,0,0,0,0
17:08:37.280,366.68,25,31,0,0,40,37,112,12,2,1,-5800,-5597,0,0,1,1,1,0,0,1,0,0,100,4,65,1366,0,0,352,262,0,3.91,3.95,3.94,68,50,89,32,36,34,16424,565.781,0,0,0,5,37,40,28,84,22,90,352,360,0,0,10,0.14,95,16,60,0,0,0,0,0,0,0,37,38,38,34,0,0,0,0,34,35,31,30,33,35,34,35,0,600207,0,0,0,0,-0.302,0.982,1.027,40.27,-5.438488,-181.5,22.8,23.783536,38.036232,128.1,0,0,-31,100,0,0,0,0,1,1,1,0,0,0,1,1,0,0,0,0,1,0,0,0,0,0,0,0,0,0,0,0,0,0,0,0,0,0,0,0,1,1,1,0,1,0,0,0,0,0,0,0,0,0,0,1,0,1,0,0,0,0
17:08:37.300,366.8,38,42,0,0,40,37,112,12,2,1,-5800,-5597,0,0,1,1,1,0,0,1,0,0,100,4,65,1366,0,0,352,262,0,3.91,3.95,3.94,68,50,89,32,36,34,16424,565.781,0,0,0,5,37,40,28,84,22,90,352,360,0,0,10,0.32,83,5,107,0,0,0,0,0,0,0,37,38,38,34,0,0,0,0,34,35,31,30,33,35,35,35,0,600207,0,0,0,0,-0.287,0.956,0.998,40.29,-5.3025258,-180.8,23,23.783536,38.036232,131,0,0,-30,98,0,0,0,0,1,1,1,0,0,0,1,1,0,0,0,0,1,0,0,0,0,0,0,0,0,0,0,0,0,0,0,0,0,0,0,0,1,1,1,0,1,0,0,0,0,0,0,0,0,0,0,1,0,1,0,0,0,0
17:08:37.320,366.93,38,42,0,0,40,37,112,12,2,1,-8200,-5597,0,0,1,1,1,0,0,1,0,0,100,4,65,1366,0,0,352,262,0,3.91,3.95,3.94,68,50,89,32,36,34,20001,565.781,0,0,0,5,37,40,28,82,22,90,367,360,0,0,10,0.32,83,5,107,0,0,0,0,0,0,0,37,38,38,34,0,0,0,0,35,35,32,30,33,35,35,35,0,600207,0,0,0,0,-0.27,0.938,0.976,40.31,-5.1665636,-180.1,23,23.783536,38.036232,131,0,0,-28,95,0,0,0,0,1,1,1,0,0,0,1,1,0,0,0,0,1,0,0,0,0,0,0,0,0,0,0,0,0,0,0,0,0,0,0,0,1,1,1,0,1,0,0,0,0,0,0,0,0,0,0,1,0,1,0,0,0,0
17:08:37.340,367.06,38,42,0,0,40,37,112,12,2,1,-8200,-5597,0,0,1,1,1,0,0,1,0,0,100,4,65,1366,0,0,352,262,0,3.91,3.95,3.94,68,50,89,32,36,34,20001,565.781,0,0,0,5,37,40,28,82,22,90,367,360,0,0,10,0.32,83,4,175,0,0,0,0,0,0,0,37,38,38,35,0,0,0,0,35,35,33,30,33,35,35,35,0,600207,0,0,0,0,-0.251,0.921,0.955,40.33,-5.0306014,-179.4,23,23.783536,38.036232,131,0,0,-27,93,0,0,0,0,1,1,1,0,0,0,1,1,0,0,0,0,1,0,0,0,0,0,0,0,0,0,0,0,0,0,0,0,0,0,0,0,1,1,1,0,1,0,0,0,0,0,0,0,0,0,0,1,0,1,0,0,0,0
17:08:37.360,367.19,38,42,0,0,40,37,112,12,2,1,-8200,-5597,0,0,1,1,1,0,0,1,0,0,100,4,65,1400,0,0,360,277,0,3.91,3.95,3.94,68,50,89,32,36,34,20001,565.781,0,0,0,5,37,40,28,82,22,90,367,360,0,0,10,0.32,83,4,175,0,0,0,0,0,0,0,37,38,38,35,0,0,0,0,35,35,33,30,33,35,35,35,0,600207,0,0,0,0,-0.22,0.909,0.935,40.35,-4.6227148,-177.3,23.7,23.783552,38.036232,132.9,0,0,-25,92,0,0,0,0,1,1,1,0,0,0,1,1,0,0,0,0,1,0,0,0,0,0,0,0,0,0,0,0,0,0,0,0,0,0,0,0,1,1,1,0,1,0,0,0,0,0,0,0,0,0,0,1,0,1,0,0,0,0
17:08:37.380,367.32,38,42,0,0,40,37,112,12,2,1,-8200,-5597,0,0,1,1,1,0,0,1,0,0,100,4,65,1400,0,0,360,277,0,3.91,3.95,3.94,68,50,89,32,36,34,20001,565.781,0,0,0,5,37,40,28,82,22,90,367,360,0,0,10,0.32,83,4,175,0,0,0,0,0,0,0,37,38,38,35,0,0,0,0,34,34,33,30,33,35,35,35,0,600207,0,0,0,0,-0.185,0.897,0.916,40.37,-4.078866,-1256.3,23.7,23.783552,38.036232,132.9,0,0,-22,90,0,0,0,0,1,1,1,0,0,0,1,1,0,0,0,0,1,0,0,0,0,0,0,0,0,0,0,0,0,0,0,0,0,0,0,0,1,1,1,0,1,0,0,0,0,0,0,0,0,0,0,1,0,1,0,0,0,0
17:08:37.400,367.45,41,44,0,0,40,37,112,12,2,1,-8200,-5597,0,0,1,1,1,0,0,1,0,0,100,4,65,1400,0,0,360,277,0,3.91,3.95,3.94,68,50,89,32,36,34,20001,565.781,0,0,0,5,37,40,28,82,22,90,367,360,0,0,10,0.32,83,21,228,0,0,0,0,0,0,0,37,38,38,35,0,0,0,0,34,34,33,30,33,36,35,35,0,600207,0,0,0,0,-0.158,0.874,0.888,40.39,-3.2630928,-1252.2,24.8,23.783552,38.036232,134.7,0,0,-18,89,0,0,0,0,1,1,1,0,0,0,1,1,0,0,0,0,1,0,0,0,0,0,0,0,0,0,0,0,0,0,0,0,0,0,0,0,1,1,1,0,1,0,0,0,0,0,0,0,0,0,0,1,0,1,0,0,0,0
17:08:37.420,367.59,41,44,0,0,40,37,112,12,2,1,-8200,-5597,0,0,1,1,1,0,0,1,0,0,100,4,65,1400,0,0,360,277,0,3.91,3.95,3.94,68,51,90,32,36,34,25616,564.764,0,0,0,5,37,40,30,23,26,9,360,375,0,0,10,0.32,83,21,228,0,0,0,0,0,0,0,37,38,38,35,0,0,0,0,34,34,33,30,33,36,35,35,0,600207,0,0,0,0,-0.144,0.852,0.864,40.41,-2.8552062,-1250.2,24.9,23.783552,38.036232,134.7,0,0,-15,87,0,0,0,0,1,1,1,0,0,0,1,1,0,0,0,0,1,0,0,0,0,0,0,0,0,0,0,0,0,0,0,0,0,0,0,0,1,1,1,0,1,0,0,0,0,0,0,0,0,0,0,1,0,1,0,0,0,0
17:08:37.440,367.73,41,44,0,0,40,37,112,12,2,1,-8600,-8580,0,0,1,1,1,0,0,1,0,0,100,4,65,1400,0,0,360,277,0,3.91,3.95,3.94,68,51,90,32,36,34,25616,564.764,0,0,0,5,37,40,30,23,26,9,360,375,0,0,10,0.32,83,21,228,0,0,0,0,0,0,0,44,41,40,37,0,0,0,0,34,34,34,30,33,36,35,35,0,600207,0,0,0,0,-0.131,0.832,0.842,40.43,-2.719244,-1249.5,24.9,23.783552,38.036232,134.7,0,0,-14,85,0,0,0,0,1,1,1,0,0,0,1,1,0,0,0,0,1,0,0,0,0,0,0,0,0,0,0,0,0,0,0,0,0,0,0,0,1,1,1,0,1,0,0,0,0,0,0,0,0,0,0,1,0,1,0,0,0,0
17:08:37.460,367.87,41,44,0,0,40,37,112,12,2,1,-8600,-8580,0,0,1,1,1,0,0,1,0,0,100,4,65,1527,0,0,360,307,0,3.91,3.95,3.94,68,51,90,32,36,34,25616,564.764,0,0,0,5,37,40,30,23,26,9,360,375,0,0,10,0.01,63,10,21,0,0,0,0,0,0,0,44,41,40,37,0,0,0,0,34,34,34,30,33,35,35,35,0,600207,0,0,0,0,-0.107,0.812,0.819,40.45,-2.4473196,-1248.1,24.8,23.783552,38.036228,137.2,0,0,-13,83,0,0,0,0,1,1,1,0,0,0,1,1,0,0,0,0,1,0,0,0,0,0,0,0,0,0,0,0,0,0,0,0,0,0,0,0,1,1,1,0,1,0,0,0,0,0,0,0,0,0,0,1,0,1,0,0,0,0
17:08:37.480,368.01,41,44,0,0,40,37,112,12,2,1,-8600,-8580,0,0,1,1,1,0,0,1,0,0,100,4,65,1527,0,0,360,307,0,3.91,3.95,3.94,68,51,90,32,36,34,25616,564.764,0,0,0,5,37,40,30,23,26,9,360,375,0,0,10,0.01,63,10,21,0,0,0,0,0,0,0,44,41,40,37,0,0,0,0,34,34,34,30,33,35,35,35,0,600207,0,0,0,0,-0.075,0.78,0.784,40.47,-1.9034708,-545.3,24.8,23.783552,38.036228,137.2,0,0,-10,81,0,0,0,0,1,1,1,0,0,0,1,1,0,0,0,0,1,0,0,0,0,0,0,0,0,0,0,0,0,0,0,0,0,0,0,0,1,1,1,0,1,0,0,0,0,0,0,0,0,0,0,1,0,1,0,0,0,0
17:08:37.500,368.15,41,44,0,0,40,37,112,12,2,1,-8600,-8580,0,0,1,1,1,0,0,1,0,0,100,4,65,1527,0,0,360,307,0,3.91,3.95,3.94,68,51,90,32,36,34,25616,564.764,0,0,0,5,37,40,30,23,26,9,360,375,0,0,10,0.01,63,6,59,0,0,0,0,0,0,0,46,42,41,38,0,0,0,0,42,37,37,32,33,35,35,35,0,600207,0,0,0,0,-0.04,0.729,0.73,40.49,-1.359622,-542.8,25.7,23.783552,38.036228,137.4,0,0,-7,78,0,0,0,0,1,1,1,0,0,0,1,1,0,0,0,0,1,0,0,0,0,0,0,0,0,0,0,0,0,0,0,0,0,0,0,0,1,1,1,0,1,0,0,0,0,0,0,0,0,0,0,1,0,1,0,0,0,0
17:08:37.520,368.29,51,53,0,0,40,37,112,12,2,1,-8600,-8580,0,0,1,1,1,0,0,1,0,0,100,4,65,1527,0,0,360,307,0,3.9,3.94,3.93,68,51,90,32,36,34,31164,564.764,0,0,0,5,37,40,30,13,26,88,390,382,0,0,10,0.01,63,6,59,0,0,0,0,0,0,0,46,42,41,38,0,0,0,0,46,40,38,35,33,35,35,35,0,600207,0,0,0,0,-0.011,0.679,0.679,40.51,-0.8157732,-540.3,25.7,23.783552,38.036228,137.4,0,0,-4,72,0,0,0,0,1,1,1,0,0,0,1,1,0,0,0,0,1,0,0,0,0,0,0,0,0,0,0,0,0,0,0,0,0,0,0,0,1,1,1,0,1,0,0,0,0,0,0,0,0,0,0,1,0,1,0,0,0,0
17:08:37.540,368.43,51,53,0,0,40,37,112,12,2,1,-10600,-8580,0,0,1,1,1,0,0,1,0,0,100,4,65,1527,0,0,360,307,0,3.9,3.94,3.93,68,51,90,32,36,34,31164,564.764,0,0,0,5,37,40,30,13,26,88,390,382,0,0,10,0.01,63,6,59,0,0,0,0,0,0,0,46,42,41,38,0,0,0,0,46,40,38,35,33,35,35,35,0,600207,0,0,0,0,0.021,0.632,0.632,40.53,-0.1359622,-537.2,25.7,23.783552,38.036228,137.4,0,0,-1,67,0,0,0,0,1,1,1,0,0,0,1,1,0,0,0,0,1,0,0,0,0,0,0,0,0,0,0,0,0,0,0,0,0,0,0,0,1,1,1,0,1,0,0,0,0,0,0,0,0,0,0,1,0,1,0,0,0,0
17:08:37.560,368.58,51,53,0,0,40,37,112,12,2,1,-10600,-8580,0,0,1,1,1,0,0,1,0,0,100,4,65,1469,0,0,375,360,0,3.9,3.94,3.93,68,51,90,32,36,34,31164,564.764,0,0,0,5,37,40,30,13,26,88,390,382,0,0,9,0.04,30,2,119,0,0,0,0,0,0,0,44,41,41,38,0,0,0,0,49,41,39,35,33,35,35,35,0,600207,0,0,0,0,0.045,0.574,0.576,40.55,0.4078866,1.8,26.5,23.783552,38.036216,136.4,0,0,2,63,0,0,0,0,1,1,1,0,0,0,1,1,0,0,0,0,1,0,0,0,0,0,0,0,0,0,0,0,0,0,0,0,0,0,0,0,1,1,1,0,1,0,0,0,0,0,0,0,0,0,0,1,0,1,0,0,0,0
17:08:37.580,368.72,51,53,0,0,40,37,112,12,2,1,-10600,-8580,0,0,1,1,1,0,0,1,0,0,100,4,65,1469,0,0,375,360,0,3.9,3.94,3.93,68,51,90,32,36,34,31164,564.764,0,0,0,5,37,40,30,13,26,88,390,382,0,0,9,0.04,30,2,119,0,0,0,0,0,0,0,44,41,41,38,0,0,0,0,47,40,38,35,32,35,35,35,0,600207,0,0,0,0,0.066,0.52,0.524,40.57,0.8157732,3.9,26.5,23.783552,38.036216,136.4,0,0,4,57,0,0,0,0,1,1,1,0,0,0,1,1,0,0,0,0,1,0,0,0,0,0,0,0,0,0,0,0,0,0,0,0,0,0,0,0,1,1,1,0,1,0,0,0,0,0,0,0,0,0,0,1,0,1,0,0,0,0
17:08:37.600,368.88,51,53,0,0,40,37,112,12,2,1,-10600,-8580,0,0,1,1,1,0,0,1,0,0,100,4,65,1469,0,0,375,360,0,3.9,3.94,3.93,68,51,90,32,36,34,31164,564.764,0,0,0,5,37,40,30,13,26,88,390,382,0,0,9,0.04,30,6,163,0,0,0,0,0,0,0,44,41,41,38,0,0,0,0,47,40,38,35,32,35,35,35,0,600207,0,0,0,0,0.082,0.469,0.476,40.59,1.2236598,5.8,28.2,23.783552,38.036216,134.1,0,0,6,52,0,0,0,0,1,1,1,0,0,0,1,1,0,0,0,0,1,0,0,0,0,0,0,0,0,0,0,0,0,0,0,0,0,0,0,0,1,1,1,0,1,0,0,0,0,0,0,0,0,0,0,1,0,1,0,0,0,0
17:08:37.620,369.03,61,64,0,0,40,37,112,12,2,1,-10600,-8580,0,0,1,1,1,0,0,1,0,0,100,4,65,1469,0,0,375,360,0,3.9,3.94,3.93,68,51,91,32,36,34,35766,563.337,0,0,0,5,37,40,30,1,30,2,420,397,0,0,9,0.04,30,6,163,0,0,0,0,0,0,0,44,41,41,38,0,0,0,0,47,40,38,35,32,35,35,35,0,600207,0,0,0,0,0.087,0.418,0.427,40.61,1.7675086,8.4,28.4,23.783552,38.036216,134.1,0,0,8,46,0,0,0,0,1,1,1,0,0,0,1,1,0,0,0,0,1,0,0,0,0,0,0,0,0,0,0,0,0,0,0,0,0,0,0,0,1,1,1,0,1,0,0,0,0,0,0,0,0,0,0,1,0,1,0,0,0,0
17:08:37.640,369.19,61,64,0,0,40,37,112,12,2,1,-12600,-8580,0,0,1,1,1,0,0,1,0,0,100,4,65,1469,0,0,375,360,0,3.9,3.94,3.93,68,51,91,32,36,34,35766,563.337,0,0,0,5,37,40,30,1,30,2,420,397,0,0,9,0.04,30,6,163,0,0,0,0,0,0,0,44,42,41,39,0,0,0,0,46,40,38,36,33,36,35,35,0,600207,0,0,0,0,0.102,0.353,0.367,40.63,1.7675086,8.4,28.4,23.783552,38.036216,134.1,0,0,8,41,0,0,0,0,1,1,1,0,0,0,1,1,0,0,0,0,1,0,0,0,0,0,0,0,0,0,0,0,0,0,0,0,0,0,0,0,1,1,1,0,1,0,0,0,0,0,0,0,0,0,0,1,0,1,0,0,0,0
17:08:37.660,369.35,61,64,0,0,40,37,112,12,2,1,-12600,-8580,0,0,1,1,1,0,0,1,0,0,100,4,65,1597,0,0,390,397,0,3.9,3.94,3.93,68,51,91,32,36,34,35766,563.337,0,0,0,5,37,40,30,1,30,2,420,397,0,0,9,0.04,30,2,234,0,0,0,0,0,0,0,44,41,41,38,0,0,0,0,46,40,38,36,32,35,35,35,0,600207,0,0,0,0,0.144,0.292,0.326,40.65,2.3113574,11,28.6,23.78357,38.036216,132.3,0,0,10,35,0,0,0,0,1,1,1,0,0,0,1,1,0,0,0,0,1,0,0,0,0,0,0,0,0,0,0,0,0,0,0,0,0,0,0,0,1,1,1,0,1,0,0,0,0,0,0,0,0,0,0,1,0,1,0,0,0,0
17:08:37.680,369.51,61,64,0,0,40,37,112,12,2,1,-12600,-8580,0,0,1,1,1,0,0,1,0,0,100,4,65,1597,0,0,390,397,0,3.9,3.94,3.93,68,51,91,32,36,34,35766,563.337,0,0,0,5,37,40,30,1,30,2,420,397,0,0,9,0.04,30,2,234,0,0,0,0,0,0,0,44,41,41,38,0,0,0,0,46,40,38,37,32,35,35,35,0,600207,0,0,0,0,0.183,0.249,0.309,40.67,3.1271306,13.7,28.6,23.78357,38.036216,132.3,0,0,14,29,0,0,0,0,1,1,1,0,0,0,1,1,0,0,0,0,1,0,0,0,0,0,0,0,0,0,0,0,0,0,0,0,0,0,0,0,1,1,1,0,1,0,0,0,0,0,0,0,0,0,0,1,0,1,0,0,0,0
17:08:37.700,369.67,61,64,0,0,40,37,112,12,2,1,-12600,-8580,0,0,1,1,1,0,0,1,0,0,100,4,65,1597,0,0,390,397,0,3.9,3.94,3.93,68,51,91,32,36,34,35766,563.337,0,0,0,5,37,40,30,1,30,2,420,397,0,0,7,0.96,-1,6,14,0,0,0,0,0,0,0,43,41,40,38,0,0,0,0,46,40,38,37,32,35,35,35,0,600207,0,0,0,0,0.204,0.208,0.291,40.69,4.078866,17.9,30,23.78357,38.036208,130.5,0,0,18,24,0,0,0,0,1,1,1,0,0,0,1,1,0,0,0,0,1,0,0,0,0,0,0,0,0,0,0,0,0,0,0,0,0,0,0,0,1,1,1,0,1,0,0,0,0,0,0,0,0,0,0,1,0,1,0,0,0,0
17:08:37.720,369.84,67,72,0,0,40,37,112,12,2,1,-12600,-8580,0,0,1,1,1,0,0,1,0,0,100,4,65,1597,0,0,390,397,0,3.9,3.94,3.93,68,51,91,32,36,34,45451,563.337,0,0,0,5,37,40,28,65,31,51,480,435,0,0,7,0.96,-1,6,14,0,0,0,0,0,0,0,43,41,40,38,0,0,0,0,46,40,38,37,32,35,34,35,0,600207,0,0,0,0,0.214,0.158,0.266,40.71,4.758677,20.9,30.2,23.78357,38.036208,130.5,0,0,20,20,0,0,0,0,1,1,1,0,0,0,1,1,0,0,0,0,1,0,0,0,0,0,0,0,0,0,0,0,0,0,0,0,0,0,0,0,1,1,1,0,1,0,0,0,0,0,0,0,0,0,0,1,0,1,0,0,0,0
17:08:37.740,370.01,67,72,0,0,40,37,112,12,2,1,-14000,-12584,0,0,1,1,1,0,0,1,0,0,100,4,65,1597,0,0,390,397,0,3.9,3.94,3.93,68,51,91,32,36,34,45451,563.337,0,0,0,5,37,40,28,65,31,51,480,435,0,0,7,0.96,-1,6,14,0,0,0,0,0,0,0,43,41,40,38,0,0,0,0,46,40,38,37,32,35,34,35,0,600207,0,0,0,0,0.223,0.111,0.249,40.73,5.0306014,22.1,30.2,23.78357,38.036208,130.5,0,0,21,15,0,0,0,0,1,1,1,0,0,0,1,1,0,0,0,0,1,0,0,0,0,0,0,0,0,0,0,0,0,0,0,0,0,0,0,0,1,1,1,0,1,0,0,0,0,0,0,0,0,0,0,1,0,1,0,0,0,0
17:08:37.760,370.18,67,72,0,0,40,37,112,12,2,1,-14000,-12584,0,0,1,1,1,0,0,1,0,0,100,4,65,1597,0,0,390,397,0,3.9,3.94,3.93,68,51,91,32,36,34,45451,563.337,0,0,0,5,37,40,28,65,31,51,480,435,0,0,7,0.96,-1,6,78,0,0,0,0,0,0,0,43,41,40,38,0,0,0,0,46,40,37,37,32,35,34,35,0,600207,0,0,0,0,0.236,0.083,0.25,40.75,5.3025258,23.3,31.8,23.78357,38.036208,128.2,0,0,22,11,0,0,0,0,1,1,1,0,0,0,1,1,0,0,0,0,1,0,0,0,0,0,0,0,0,0,0,0,0,0,0,0,0,0,0,0,1,1,1,0,1,0,0,0,0,0,0,0,0,0,0,1,0,1,0,0,0,0
17:08:37.780,370.36,67,72,0,0,40,37,112,12,2,1,-14000,-12584,0,0,1,1,1,0,0,1,0,0,100,4,65,1854,0,0,412,450,0,3.9,3.94,3.93,68,51,91,32,36,34,45451,563.337,0,0,0,5,37,40,28,65,31,51,480,435,0,0,7,0.96,-1,6,78,0,0,0,0,0,0,0,44,41,40,38,0,0,0,0,46,40,37,37,32,35,35,35,0,600207,0,0,0,0,0.253,0.061,0.26,40.77,5.7104124,21.6,31.8,23.78357,38.036208,128.2,0,0,23,8,0,0,0,0,1,1,1,0,0,0,1,1,0,0,0,0,1,0,0,0,0,0,0,0,0,0,0,0,0,0,0,0,0,0,0,0,1,1,1,0,1,0,0,0,0,0,0,0,0,0,0,1,0,1,0,0,0,0
17:08:37.800,370.54,67,72,0,0,40,37,112,12,2,1,-14000,-12584,0,0,1,1,1,0,0,1,0,0,100,4,65,1854,0,0,412,450,0,3.9,3.94,3.93,68,51,91,32,36,34,45451,563.337,0,0,0,5,37,40,28,65,31,51,480,435,0,0,7,0.96,-1,6,78,0,0,0,0,0,0,0,44,41,40,38,0,0,0,0,48,41,38,37,32,35,35,35,0,600207,0,0,0,0,0.284,0.058,0.29,40.79,6.2542612,23.6,33,23.78357,38.036204,125.8,0,0,25,6,0,0,0,0,1,1,1,0,0,0,1,1,0,0,0,0,1,0,0,0,0,0,0,0,0,0,0,0,0,0,0,0,0,0,0,0,1,1,1,0,1,0,0,0,0,0,0,0,0,0,0,1,0,1,0,0,0,0
17:08:37.820,370.72,74,77,0,0,40,37,112,12,2,1,-14000,-12584,0,0,1,1,1,0,0,1,0,0,100,4,65,1854,0,0,412,450,0,3.9,3.94,3.93,68,52,93,32,36,34,45451,560.671,0,0,0,5,37,40,29,0,32,44,502,562,0,0,8,0.55,-13,6,115,0,0,0,0,0,0,0,44,41,40,38,0,0,0,0,48,41,38,37,32,35,35,35,0,600207,0,0,0,0,0.313,0.055,0.318,40.81,7.477921,28.3,33.3,23.78357,38.036204,125.8,0,0,28,5,0,0,0,0,1,1,1,0,0,0,1,1,0,0,0,0,1,0,0,0,0,0,0,0,0,0,0,0,0,0,0,0,0,0,0,0,1,1,1,0,1,0,0,0,0,0,0,0,0,0,0,1,0,1,0,0,0,0
17:08:37.840,370.9,74,77,0,0,40,37,112,12,2,1,-16200,-12584,0,0,1,1,1,0,0,1,0,0,100,4,65,1854,0,0,412,450,0,3.9,3.94,3.93,68,52,93,32,36,34,45451,560.671,0,0,0,5,37,40,29,0,32,44,502,562,0,0,8,0.55,-13,6,115,0,0,0,0,0,0,0,44,42,41,39,0,0,0,0,48,41,38,37,32,35,35,35,0,600207,0,0,0,0,0.332,0.032,0.334,40.83,8.157732,30.9,33.3,23.78357,38.036204,125.8,0,0,31,5,0,0,0,0,1,1,1,0,0,0,1,1,0,0,0,0,1,0,0,0,0,0,0,0,0,0,0,0,0,0,0,0,0,0,0,0,1,1,1,0,1,0,0,0,0,0,0,0,0,0,0,1,0,1,0,0,0,0
17:08:37.860,371.09,74,77,0,0,40,37,112,12,2,1,-16200,-12584,0,0,1,1,1,0,0,1,0,0,100,4,65,1854,0,0,412,450,0,3.9,3.94,3.93,68,52,93,32,36,34,45451,560.671,0,0,0,5,37,40,29,0,32,44,502,562,0,0,8,0.55,-13,2,169,0,0,0,0,0,0,0,44,42,41,39,0,0,0,0,50,42,38,37,32,35,35,35,0,600207,0,0,0,0,0.331,0.009,0.331,40.85,8.7015808,32.9,34.4,23.783586,38.036204,125.2,0,0,33,3,0,0,0,0,1,1,1,0,0,0,1,1,0,0,0,0,1,0,0,0,0,0,0,0,0,0,0,0,0,0,0,0,0,0,0,0,1,1,1,0,1,0,0,0,0,0,0,0,0,0,0,1,0,1,0,0,0,0
17:08:37.880,371.28,74,77,0,0,40,37,112,12,2,1,-16200,-12584,0,0,1,1,1,0,0,1,0,0,100,4,65,2118,0,0,457,480,0,3.9,3.94,3.93,68,52,93,32,36,34,45451,560.671,0,0,0,5,37,40,29,0,32,44,502,562,0,0,8,0.55,-13,2,169,0,0,0,0,0,0,0,44,42,41,39,0,0,0,0,50,42,38,37,32,35,35,35,0,600207,0,0,0,0,0.33,-0.01,0.33,40.87,8.9735052,33.9,34.4,23.783586,38.036204,125.2,0,0,33,0,0,0,0,0,1,1,1,0,0,0,1,1,0,0,0,0,1,0,0,0,0,0,0,0,0,0,0,0,0,0,0,0,0,0,0,0,1,1,1,0,1,0,0,0,0,0,0,0,0,0,0,1,0,1,0,0,0,0
17:08:37.900,371.48,74,77,0,0,40,37,112,12,2,1,-16200,-12584,0,0,1,1,1,0,0,1,0,0,100,4,65,2118,0,0,457,480,0,3.9,3.94,3.93,68,52,93,32,36,34,45451,560.671,0,0,0,5,37,40,29,0,32,44,502,562,0,0,8,0.55,-13,2,169,0,0,0,0,0,0,0,46,43,41,38,0,0,0,0,50,42,38,37,32,36,36,36,0,600207,0,0,0,0,0.35,-0.011,0.35,40.89,8.9735052,29.7,35.7,23.783586,38.036204,124.2,0,0,33,-1,0,0,0,0,1,1,1,0,0,0,1,1,0,0,0,0,1,0,0,0,0,0,0,0,0,0,0,0,0,0,0,0,0,0,0,0,1,1,1,0,1,0,0,0,0,0,0,0,0,0,0,1,0,1,0,0,0,0
17:08:37.920,371.68,16,18,2,3,40,37,112,12,2,1,-16200,-12584,0,0,1,1,1,0,0,1,0,0,100,4,65,2118,0,0,457,480,0,3.9,3.94,3.93,68,52,93,32,36,34,73358,560.671,0,0,0,5,37,40,29,0,32,44,502,562,0,0,8,0.55,-13,8,222,0,0,0,0,0,0,0,46,43,41,38,0,0,0,0,54,42,39,37,32,36,36,36,0,600207,0,0,0,0,0.373,-0.012,0.373,40.91,9.7892784,32.4,35.9,23.783586,38.036204,124.2,0,0,35,-1,0,0,0,0,1,1,1,0,0,0,1,1,0,0,0,0,1,0,0,0,0,0,0,0,0,0,0,0,0,0,0,0,0,0,0,0,1,1,1,0,1,0,0,0,0,0,0,0,0,0,0,1,0,1,0,0,0,0
17:08:37.940,371.88,16,18,2,3,40,37,112,12,2,1,-16200,-12584,0,0,1,1,1,0,0,1,0,0,100,4,65,2118,0,0,457,480,0,3.9,3.94,3.93,68,52,93,32,36,34,73358,560.671,0,0,0,5,37,40,29,31,32,51,615,562,0,0,8,0.55,-13,8,222,0,0,0,0,0,0,0,46,43,41,38,0,0,0,0,56,43,39,37,32,36,36,36,0,600207,0,0,0,0,0.395,-0.038,0.397,40.93,10.4690894,34.7,35.9,23.783586,38.036204,124.2,0,0,37,-1,0,0,0,0,1,1,1,0,0,0,1,1,0,0,0,0,1,0,0,0,0,0,0,0,0,0,0,0,0,0,0,0,0,0,0,0,1,1,1,0,1,0,0,0,0,0,0,0,0,0,0,1,0,1,0,0,0,0
17:08:37.960,372.08,16,18,2,3,40,37,112,12,2,1,-3600,-14994,0,0,1,1,1,0,0,1,0,0,100,4,65,2118,0,0,457,480,0,3.9,3.94,3.93,68,52,93,32,36,34,73358,560.671,0,0,0,5,37,40,29,31,32,51,615,562,0,0,8,0.29,-6,2,22,0,0,0,0,0,0,0,47,43,41,38,0,0,0,0,56,43,39,37,32,36,36,36,0,600207,0,0,0,0,0.405,-0.063,0.41,40.95,11.0129382,36.5,37,23.783586,38.036204,123.8,0,0,39,-3,0,0,0,0,1,1,1,0,0,0,1,1,0,0,0,0,1,0,0,0,0,0,0,0,0,0,0,0,0,0,0,0,0,0,0,0,1,1,1,0,1,0,0,0,0,0,0,0,0,0,0,1,0,1,0,0,0,0
17:08:37.980,372.29,16,18,2,3,40,37,112,12,2,1,-3600,-14994,0,0,1,1,1,0,0,1,0,0,100,4,65,2258,1,1,480,510,0,3.9,3.94,3.93,68,52,93,32,36,34,73358,560.671,0,0,0,5,37,40,29,31,32,51,615,562,0,0,8,0.29,-6,2,22,0,0,0,0,0,0,0,47,43,41,38,0,0,0,0,58,43,39,37,32,36,36,36,0,600207,0,0,0,0,0.385,-0.086,0.394,40.97,11.8287114,39.2,37.2,23.783586,38.036204,123.8,0,0,40,-6,0,0,0,0,1,1,1,0,0,0,1,1,0,0,0,0,1,0,0,0,0,0,0,0,0,0,0,0,0,0,0,0,0,0,0,0,1,1,1,0,1,0,0,0,0,0,0,0,0,0,0,1,0,1,0,0,0,0
17:08:38.000,372.49,16,18,2,3,40,37,112,12,2,1,-3600,-14994,0,0,1,1,1,0,0,1,0,0,100,4,65,2258,1,1,480,510,0,3.9,3.94,3.93,68,52,93,32,36,34,73358,560.671,0,0,0,5,37,40,29,31,32,51,615,562,0,0,8,0.29,-6,2,22,0,0,0,0,0,0,0,48,43,41,39,0,0,0,0,60,44,39,37,32,36,36,36,0,600207,0,0,0,0,0.299,-0.119,0.322,40.99,11.2848626,35.1,38.2,23.783606,38.036196,122.3,0,0,38,-8,0,0,0,0,1,1,1,0,0,0,1,1,0,0,0,0,1,0,0,0,0,0,0,0,0,0,0,0,0,0,0,0,0,0,0,0,1,1,1,0,1,0,0,0,0,0,0,0,0,0,0,1,0,1,0,0,0,0
17:08:38.020,372.71,16,18,2,3,40,37,112,12,2,1,-3600,-14994,0,0,1,1,1,0,0,1,0,0,100,4,65,2258,1,1,480,510,0,3.9,3.94,3.93,68,53,95,32,36,34,14254,561.469,0,0,0,5,37,40,29,31,32,51,615,562,0,0,8,0.29,-6,2,22,0,0,0,0,0,0,0,48,44,42,40,0,0,0,0,60,44,39,37,32,36,36,36,0,600207,0,0,0,0,0.211,-0.15,0.259,41.01,8.837543,27.4,38.4,23.783606,38.036196,122.3,0,0,29,-11,0,0,0,0,1,1,1,0,0,0,1,1,0,0,0,0,1,0,0,0,0,0,0,0,0,0,0,0,0,0,0,0,0,0,0,0,1,1,1,0,1,0,0,0,0,0,0,0,0,0,0,1,0,1,0,0,0,0
17:08:38.040,372.92,0,0,18,22,40,38,112,12,2,1,-3600,-14994,0,0,1,1,1,0,0,1,0,0,100,4,65,2258,1,1,480,510,0,3.9,3.94,3.93,68,53,95,32,36,34,14254,561.469,0,0,0,5,37,40,29,17,33,6,450,502,0,0,8,0.29,-6,27,79,0,0,0,0,0,0,0,48,44,42,40,0,0,0,0,60,44,39,37,32,36,36,36,0,600207,0,0,0,0,0.128,-0.193,0.232,41.03,6.3902234,19.8,38.4,23.783606,38.036196,122.3,0,0,21,-15,0,0,0,0,1,1,1,0,0,0,1,1,0,0,0,0,1,0,0,0,0,0,0,0,0,0,0,0,0,0,0,0,0,0,0,0,1,1,1,0,1,0,0,0,0,0,0,0,0,0,0,1,0,1,0,0,0,0
17:08:38.060,373.13,0,0,18,22,40,38,112,12,2,1,-3600,-14994,0,0,1,1,1,0,0,1,0,0,100,4,65,2258,1,1,480,510,0,3.9,3.94,3.93,68,53,95,32,36,34,14254,561.469,0,0,0,5,37,40,29,17,33,6,450,502,0,0,8,0.29,-6,27,79,0,0,0,0,0,0,0,49,44,42,40,0,0,0,0,70,45,40,37,32,36,36,36,0,600207,0,0,0,0,0.043,-0.228,0.232,41.05,3.6709794,11.4,37.9,23.783606,38.036196,121.8,0,0,12,-19,0,0,0,0,1,1,1,0,0,0,1,1,0,0,0,0,1,0,0,0,0,0,0,0,0,0,0,0,0,0,0,0,0,0,0,0,1,1,1,0,1,0,0,0,0,0,0,0,0,0,0,1,0,1,0,0,0,0
17:08:38.080,373.34,0,0,18,22,40,38,112,12,2,1,0,-14994,0,0,1,1,1,0,0,1,0,0,100,4,65,2258,1,1,480,510,0,3.9,3.94,3.93,68,53,95,32,36,34,14254,561.469,0,0,0,5,37,40,29,17,33,6,450,502,0,0,8,0.55,-6,6,143,0,0,0,0,0,0,0,49,44,42,40,0,0,0,0,70,45,40,37,32,36,36,36,0,600207,0,0,0,0,-0.031,-0.261,0.263,41.07,1.2236598,3.8,37.9,23.783606,38.036196,121.8,0,0,4,-22,0,0,0,0,1,1,1,0,0,0,1,1,0,0,0,0,1,0,0,0,0,0,0,0,0,0,0,0,0,0,0,0,0,0,0,0,1,1,1,0,1,0,0,0,0,0,0,0,0,0,0,1,0,1,0,0,0,0
17:08:38.100,373.55,0,0,18,22,40,38,112,12,2,1,0,-14994,0,0,1,1,1,0,0,1,0,0,100,4,65,1776,1,1,457,472,0,3.9,3.94,3.93,68,53,95,32,36,34,14254,561.469,0,0,0,5,37,40,29,17,33,6,450,502,0,0,8,0.55,-6,6,143,0,0,0,0,0,0,0,49,44,42,40,0,0,0,0,70,45,40,38,32,36,36,36,0,600207,0,0,0,0,-0.109,-0.28,0.3,41.09,-0.9517354,153.7,36.1,23.783606,38.036192,120.1,0,0,-3,-26,0,0,0,0,1,1,1,0,0,0,1,1,0,0,0,0,1,0,0,0,0,0,0,0,0,0,0,0,0,0,0,0,0,0,0,0,1,1,1,0,1,0,0,0,0,0,0,0,0,0,0,1,0,1,0,0,0,0
17:08:38.120,373.75,0,0,18,22,40,38,112,12,2,1,0,-14994,0,0,1,1,1,0,0,1,0,0,100,4,65,1776,1,1,457,472,0,3.9,3.94,3.93,68,53,95,32,36,34,133,561.469,0,0,0,5,37,40,29,17,33,6,450,502,0,0,8,0.55,-6,6,143,0,0,0,0,0,0,0,50,44,41,38,0,0,0,0,76,45,40,38,32,36,36,36,0,600207,0,0,0,0,-0.174,-0.29,0.338,41.11,-2.8552062,-660.8,36,23.783606,38.036192,120.1,0,0,-10,-28,0,0,0,0,1,1,1,0,0,0,1,1,0,0,0,0,1,0,0,0,0,0,0,0,0,0,0,0,0,0,0,0,0,0,0,0,1,1,1,0,1,0,0,0,0,0,0,0,0,0,0,1,0,1,0,0,0,0
17:08:38.140,373.95,0,0,18,22,40,38,112,12,2,1,0,-14994,0,0,1,1,1,0,0,1,0,0,100,4,65,1776,1,1,457,472,0,3.9,3.94,3.93,68,53,95,32,36,34,133,561.469,0,0,0,5,37,40,24,16,30,24,450,472,0,0,8,0.55,-6,2,178,0,0,0,0,0,0,0,50,44,41,38,0,0,0,0,76,45,40,38,32,36,36,36,0,600207,0,0,0,0,-0.224,-0.273,0.353,41.13,-4.8946392,-668.9,36,23.783606,38.036192,120.1,0,0,-17,-29,0,0,0,0,1,1,1,0,0,0,1,1,0,0,0,0,1,0,0,0,0,0,0,0,0,0,0,0,0,0,0,0,0,0,0,0,1,1,1,0,1,0,0,0,0,0,0,0,0,0,0,1,0,1,0,0,0,0
17:08:38.160,374.15,0,0,20,23,40,38,112,12,2,1,0,-14994,0,0,1,1,1,0,0,1,0,0,100,4,65,1776,1,1,457,472,0,3.9,3.94,3.93,68,53,95,32,36,34,133,561.469,0,0,0,5,37,40,24,16,30,24,450,472,0,0,8,0.55,-6,2,178,0,0,0,0,0,0,0,50,44,41,38,0,0,0,0,71,43,38,36,32,36,36,36,0,600207,0,0,0,0,-0.267,-0.257,0.371,41.15,-6.3902234,-674.8,34.8,23.783606,38.036192,119.1,0,0,-22,-27,0,0,0,0,1,1,1,0,0,0,1,1,0,0,0,0,1,0,0,0,0,0,0,0,0,0,0,0,0,0,0,0,0,0,0,0,1,1,1,0,1,0,0,0,0,0,0,0,0,0,0,1,0,1,0,0,0,0
17:08:38.180,374.34,0,0,20,23,40,38,112,12,2,0,0,0,0,0,1,1,1,0,0,1,0,0,100,4,65,1776,1,1,457,472,0,3.9,3.94,3.93,68,53,95,32,36,34,133,561.469,0,0,0,5,37,40,24,16,30,24,450,472,0,0,8,0.44,-11,9,246,0,0,0,0,0,0,0,42,40,39,35,0,0,0,0,69,43,38,36,32,36,36,36,0,600207,0,0,0,0,-0.308,-0.245,0.394,41.17,-7.0700344,-677.5,34.8,23.783606,38.036192,119.1,0,0,-26,-25,0,0,0,0,1,1,1,0,0,0,1,1,0,0,0,0,0,0,0,0,0,0,0,0,0,0,0,0,0,0,0,0,0,0,0,0,1,1,1,0,1,0,0,0,0,0,0,0,0,0,0,1,0,1,0,0,0,0
17:08:38.200,374.53,0,0,20,23,40,38,112,12,2,0,0,0,0,0,1,1,1,0,0,1,0,0,100,4,65,1761,1,1,412,435,0,3.9,3.94,3.93,68,53,95,32,36,34,133,561.469,0,0,0,5,37,40,24,16,30,24,450,472,0,0,8,0.44,-11,9,246,0,0,0,0,0,0,0,40,39,39,35,0,0,0,0,69,43,38,36,32,36,36,36,0,600207,0,0,0,0,-0.346,-0.246,0.425,41.19,-8.157732,-681.8,33.7,23.783618,38.036192,118.4,0,0,-30,-24,0,0,0,0,1,1,1,0,0,0,1,1,0,0,0,0,0,0,0,0,0,0,0,0,0,0,0,0,0,0,0,0,0,0,0,0,1,1,1,0,1,0,0,0,0,0,0,0,0,0,0,1,0,1,0,0,0,0
17:08:38.220,374.72,0,0,20,23,40,38,112,12,2,0,0,0,0,0,1,1,1,0,0,1,0,0,100,4,65,1761,1,1,412,435,0,3.9,3.94,3.93,68,53,94,32,36,34,135,567.122,0,0,0,5,37,40,24,16,30,24,450,472,0,0,8,0.44,-11,9,246,0,0,0,0,0,0,0,40,39,39,35,0,0,0,0,57,39,35,35,32,36,36,36,0,600207,0,0,0,0,-0.374,-0.254,0.452,41.21,-8.9735052,1374.6,33.5,23.783618,38.036192,118.4,0,0,-34,-24,0,0,0,0,1,1,1,0,0,0,1,1,0,0,0,0,0,0,0,0,0,0,0,0,0,0,0,0,0,0,0,0,0,0,0,0,1,1,1,0,1,0,0,0,0,0,0,0,0,0,0,1,0,1,0,0,0,0
17:08:38.240,374.9,0,0,20,23,40,38,112,12,2,0,0,0,0,0,1,1,1,0,0,1,0,0,100,4,65,1761,1,1,412,435,0,3.9,3.94,3.93,68,53,94,32,36,34,135,567.122,0,0,0,5,37,40,23,39,29,24,412,412,0,0,8,0.44,-11,6,44,0,0,0,0,0,0,0,38,38,39,35,0,0,0,0,57,39,35,35,32,36,35,35,0,600207,0,0,0,0,-0.4,-0.273,0.484,41.23,-9.7892784,1371.4,33.5,23.783618,38.036192,118.4,0,0,-37,-25,0,0,0,0,1,1,1,0,0,0,1,1,0,0,0,0,0,0,0,0,0,0,0,0,0,0,0,0,0,0,0,0,0,0,0,0,1,1,1,0,1,0,0,0,0,0,0,0,0,0,0,1,0,1,0,0,0,0
17:08:38.260,375.08,0,0,17,19,40,38,112,12,2,0,0,0,0,0,1,1,1,0,0,1,0,0,100,4,65,1761,1,1,412,435,0,3.9,3.94,3.93,68,53,94,32,36,34,135,567.122,0,0,0,5,37,40,23,39,29,24,412,412,0,0,8,0.44,-11,6,44,0,0,0,0,0,0,0,38,38,38,35,0,0,0,0,57,39,35,35,32,36,35,36,0,600207,0,0,0,0,-0.424,-0.291,0.514,41.25,-10.6050516,1368.1,31.8,23.783618,38.036192,117.8,0,0,-40,-27,0,0,0,0,1,1,1,0,0,0,1,1,0,0,0,0,0,0,0,0,0,0,0,0,0,0,0,0,0,0,0,0,0,0,0,0,1,1,1,0,1,0,0,0,0,0,0,0,0,0,0,1,0,1,0,0,0,0
17:08:38.280,375.26,0,0,17,19,40,38,112,12,2,0,0,0,0,0,1,1,1,0,0,1,0,0,100,4,65,1761,1,1,412,435,0,3.9,3.94,3.93,68,53,94,32,36,34,135,567.122,0,0,0,5,37,40,23,39,29,24,412,412,0,0,8,0.44,-11,6,44,0,0,0,0,0,0,0,38,38,38,35,0,0,0,0,64,42,37,35,32,36,35,36,0,600207,0,0,0,0,-0.45,-0.318,0.551,41.27,-10.4690894,1368.7,31.8,23.783618,38.036192,117.8,0,0,-42,-29,0,0,0,0,1,1,1,0,0,0,1,1,0,0,0,0,0,0,0,0,0,0,0,0,0,0,0,0,0,0,0,0,0,0,0,0,1,1,1,0,1,0,0,0,0,0,0,0,0,0,0,1,0,1,0,0,0,0
17:08:38.300,375.43,0,0,17,19,40,38,112,12,2,0,0,0,0,0,1,1,1,0,0,1,0,0,100,4,65,1579,1,1,360,397,0,3.9,3.94,3.93,68,53,94,32,36,34,135,567.122,0,0,0,5,37,40,23,39,29,24,412,412,0,0,8,0.44,-11,3,93,0,0,0,0,0,0,0,38,38,38,35,0,0,0,0,64,44,38,36,32,36,36,36,0,600207,0,0,0,0,-0.476,-0.343,0.587,41.29,-11.1489004,1365.9,30.9,23.783618,38.036188,115.6,0,0,-45,-31,0,0,0,0,1,1,1,0,0,0,1,1,0,0,0,0,0,0,0,0,0,0,0,0,0,0,0,0,0,0,0,0,0,0,0,0,1,1,1,0,1,0,0,0,0,0,0,0,0,0,0,1,0,1,0,0,0,0
17:08:38.320,375.61,0,0,17,19,40,38,112,12,2,0,0,0,0,0,1,1,1,0,0,1,0,0,100,4,65,1579,1,1,360,397,0,3.9,3.94,3.93,68,53,94,32,36,34,138,567.122,0,0,0,5,37,40,23,39,29,24,412,412,0,0,8,0.44,-11,3,93,0,0,0,0,0,0,0,37,38,38,35,0,0,0,0,64,44,38,36,32,36,36,36,0,600207,0,0,0,0,-0.501,-0.368,0.622,41.31,-11.2848626,3257.7,30.6,23.783618,38.036188,115.6,0,0,-47,-34,0,0,0,0,1,1,1,0,0,0,1,1,0,0,0,0,0,0,0,0,0,0,0,0,0,0,0,0,0,0,0,0,0,0,0,0,1,1,1,0,1,0,0,0,0,0,0,0,0,0,0,1,0,1,0,0,0,0
17:08:38.340,375.78,0,0,17,19,40,38,112,12,2,0,0,0,0,0,1,1,1,0,0,1,0,0,100,4,65,1579,1,1,360,397,0,3.9,3.94,3.93,68,53,94,32,36,34,138,567.122,0,0,0,5,37,40,23,59,27,67,367,390,0,0,8,0.02,-19,2,151,0,0,0,0,0,0,0,37,38,38,35,0,0,0,0,67,48,40,38,32,36,36,36,0,600207,0,0,0,0,-0.519,-0.392,0.65,41.33,-12.1006358,3254.1,30.6,23.783618,38.036188,115.6,0,0,-50,-36,0,0,0,0,1,1,1,0,0,0,1,1,0,0,0,0,0,0,0,0,0,0,0,0,0,0,0,0,0,0,0,0,0,0,0,0,1,1,1,0,1,0,0,0,0,0,0,0,0,0,0,1,0,1,0,0,0,0
17:08:38.360,375.94,3,3,9,8,40,38,112,12,2,0,0,0,0,0,1,1,1,0,0,1,0,0,100,4,65,1579,1,1,360,397,0,3.9,3.94,3.93,68,53,94,32,36,34,138,567.122,0,0,0,5,37,40,23,59,27,67,367,390,0,0,8,0.02,-19,2,151,0,0,0,0,0,0,0,37,38,38,35,0,0,0,0,54,40,37,35,32,35,35,36,0,600207,0,0,0,0,-0.519,-0.406,0.659,41.35,-12.236598,3253.5,29.7,23.783634,38.036188,113.3,0,0,-51,-39,0,0,0,0,1,1,1,0,0,0,1,1,0,0,0,0,0,0,0,0,0,0,0,0,0,0,0,0,0,0,0,0,0,0,0,0,1,1,1,0,1,0,0,0,0,0,0,0,0,0,0,1,0,1,0,0,0,0
17:08:38.380,376.11,3,3,9,8,40,38,112,12,2,0,0,0,0,0,1,1,1,0,0,1,0,0,100,4,65,1579,1,1,360,397,0,3.9,3.94,3.93,68,53,94,32,36,34,138,567.122,0,0,0,5,37,40,23,59,27,67,367,390,0,0,8,0.02,-19,2,151,0,0,0,0,0,0,0,37,38,38,34,0,0,0,0,49,40,37,35,32,36,35,36,0,600207,0,0,0,0,-0.51,-0.419,0.66,41.37,-11.8287114,3255.3,29.7,23.783634,38.036188,113.3,0,0,-51,-40,0,0,0,0,1,1,1,0,0,0,1,1,0,0,0,0,0,0,0,0,0,0,0,0,0,0,0,0,0,0,0,0,0,0,0,0,1,1,1,0,1,0,0,0,0,0,0,0,0,0,0,1,0,1,0,0,0,0
17:08:38.400,376.27,3,3,9,8,40,38,112,12,2,0,0,0,0,0,1,1,1,0,0,1,0,0,100,4,65,1579,1,1,360,397,0,3.9,3.94,3.93,68,53,94,32,36,34,138,567.122,0,0,0,5,37,40,23,59,27,67,367,390,0,0,8,0.02,-19,6,196,0,0,0,0,0,0,0,37,38,38,34,0,0,0,0,49,40,37,35,32,36,35,36,0,600207,0,0,0,0,-0.499,-0.442,0.667,41.39,-11.8287114,3255.3,29.4,23.783634,38.036188,111.2,0,0,-51,-41,0,0,0,0,1,1,1,0,0,0,1,1,0,0,0,0,0,0,0,0,0,0,0,0,0,0,0,0,0,0,0,0,0,0,0,0,1,1,1,0,1,0,0,0,0,0,0,0,0,0,0,1,0,1,0,0,0,0
17:08:38.420,376.44,3,3,9,8,40,38,112,12,2,0,0,0,0,0,1,1,1,0,0,1,0,0,100,4,65,1444,0,0,352,397,0,3.9,3.94,3.93,68,53,94,32,36,34,156,567.276,0,0,0,5,37,40,23,59,27,67,367,390,0,0,8,0.02,-19,6,196,0,0,0,0,0,0,0,37,38,38,34,0,0,0,0,32,35,34,34,32,35,35,36,0,600207,0,0,0,0,-0.489,-0.468,0.677,41.41,-11.4208248,3257.1,29.3,23.783634,38.036188,111.2,0,0,-49,-44,0,0,0,0,1,1,1,0,0,0,1,1,0,0,0,0,0,0,0,0,0,0,0,0,0,0,0,0,0,0,0,0,0,0,0,0,1,1,1,0,1,0,0,0,0,0,0,0,0,0,0,1,0,1,0,0,0,0
17:08:38.440,376.6,3,3,9,8,40,38,112,12,2,0,0,0,0,0,1,1,1,0,0,1,0,0,100,4,65,1444,0,0,352,397,0,3.9,3.94,3.93,68,53,94,32,36,34,156,567.276,0,0,0,5,37,40,22,60,28,64,352,397,0,0,8,0.02,-19,6,196,0,0,0,0,0,0,0,37,38,37,35,0,0,0,0,32,35,34,34,32,36,35,35,0,600207,0,0,0,0,-0.48,-0.493,0.688,41.43,-11.1489004,2469.1,29.3,23.783634,38.036188,111.2,0,0,-48,-46,0,0,0,0,1,1,1,0,0,0,1,1,0,0,0,0,0,0,0,0,0,0,0,0,0,0,0,0,0,0,0,0,0,0,0,0,1,1,1,0,1,0,0,0,0,0,0,0,0,0,0,1,0,1,0,0,0,0
17:08:38.460,376.76,3,3,9,8,40,38,112,12,2,0,0,0,0,0,1,1,1,0,0,1,0,0,100,4,65,1444,0,0,352,397,0,3.9,3.94,3.93,68,53,94,32,36,34,156,567.276,0,0,0,5,37,40,22,60,28,64,352,397,0,0,9,0.46,-35,4,255,0,0,0,0,0,0,0,37,38,37,35,0,0,0,0,32,35,34,34,32,36,35,35,0,600207,0,0,0,0,-0.466,-0.518,0.697,41.45,-11.1489004,2469.1,28.7,23.783634,38.03618,107.2,0,0,-48,-49,0,0,0,0,1,1,1,0,0,0,1,1,0,0,0,0,0,0,0,0,0,0,0,0,0,0,0,0,0,0,0,0,0,0,0,0,1,1,1,0,1,0,0,0,0,0,0,0,0,0,0,1,0,1,0,0,0,0
17:08:38.480,376.92,9,11,0,0,40,38,112,12,2,0,0,0,0,0,1,1,1,0,0,1,0,0,100,4,65,1444,0,0,352,397,0,3.9,3.94,3.93,68,53,94,32,36,34,156,567.276,0,0,0,5,37,40,22,60,28,64,352,397,0,0,9,0.46,-35,4,255,0,0,0,0,0,0,0,37,37,37,35,0,0,0,0,31,35,35,35,32,36,35,35,0,600207,0,0,0,0,-0.459,-0.547,0.714,41.47,-10.3331272,2473.1,28.7,23.783634,38.03618,107.2,0,0,-46,-51,0,0,0,0,1,1,1,0,0,0,1,1,0,0,0,0,0,0,0,0,0,0,0,0,0,0,0,0,0,0,0,0,0,0,0,0,1,1,1,0,1,0,0,0,0,0,0,0,0,0,0,1,0,1,0,0,0,0
17:08:38.500,377.08,9,11,0,0,40,38,112,12,2,0,0,0,0,0,1,1,1,0,0,1,0,0,100,4,65,1444,0,0,352,397,0,3.9,3.94,3.93,68,53,94,32,36,34,156,567.276,0,0,0,5,37,40,22,60,28,64,352,397,0,0,9,0.46,-35,4,49,0,0,0,0,0,0,0,37,37,37,35,0,0,0,0,31,34,35,34,32,35,35,35,0,600207,0,0,0,0,-0.453,-0.579,0.735,41.49,-10.0612028,2474.4,29.1,23.783634,38.03618,103.3,0,0,-45,-54,0,0,0,0,1,1,1,0,0,0,1,1,0,0,0,0,0,0,0,0,0,0,0,0,0,0,0,0,0,0,0,0,0,0,0,0,1,1,1,0,1,0,0,0,0,0,0,0,0,0,0,1,0,1,0,0,0,0
17:08:38.520,377.24,9,11,0,0,40,38,112,12,2,0,-2200,0,0,0,1,1,1,0,0,1,0,0,100,4,65,1444,0,0,352,397,0,3.9,3.94,3.93,68,53,94,32,36,34,6327,567.276,0,0,0,5,37,40,22,60,28,64,352,397,0,0,9,0.46,-35,4,49,0,0,0,0,0,0,0,37,37,37,35,0,0,0,0,31,34,35,34,32,35,35,35,0,600207,0,0,0,0,-0.448,-0.609,0.756,41.51,-10.4690894,2472.4,29.1,23.783634,38.03618,103.3,0,0,-45,-57,0,0,0,0,1,1,1,0,0,0,1,1,0,0,0,0,0,0,0,0,0,0,0,0,0,0,0,0,0,0,0,0,0,0,0,0,1,1,1,0,1,0,0,0,0,0,0,0,0,0,0,1,0,1,0,0,0,0
17:08:38.540,377.4,9,11,0,0,40,38,112,12,2,0,-2200,0,0,0,1,1,1,0,0,1,0,0,100,4,65,1510,0,0,337,405,0,3.9,3.94,3.93,68,53,94,32,36,34,6327,567.276,0,0,0,5,37,40,22,48,29,49,382,405,0,0,9,0.46,-35,4,49,0,0,0,0,0,0,0,37,38,38,35,0,0,0,0,31,34,34,34,32,35,35,35,0,600207,0,0,0,0,-0.438,-0.621,0.76,41.53,-10.197165,2473.8,29.1,23.783634,38.03618,103.3,0,0,-44,-60,0,0,0,0,1,1,1,0,0,0,1,1,0,0,0,0,0,0,0,0,0,0,0,0,0,0,0,0,0,0,0,0,0,0,0,0,1,1,1,0,1,0,0,0,0,0,0,0,0,0,0,1,0,1,0,0,0,0
17:08:38.560,377.56,9,11,0,0,40,38,112,12,2,0,-2200,0,0,0,1,1,1,0,0,1,0,0,100,4,65,1510,0,0,337,405,0,3.9,3.94,3.93,68,53,94,32,36,34,6327,567.276,0,0,0,5,37,40,22,48,29,49,382,405,0,0,9,0.64,-46,4,100,0,0,0,0,0,0,0,37,38,38,35,0,0,0,0,32,34,35,34,32,36,35,36,0,600207,0,0,0,0,-0.427,-0.627,0.759,41.55,-10.0612028,2583.3,28.7,23.783656,38.03618,98.7,0,0,-43,-62,0,0,0,0,1,1,1,0,0,0,1,1,0,0,0,0,0,0,0,0,0,0,0,0,0,0,0,0,0,0,0,0,0,0,0,0,1,1,1,0,1,0,0,0,0,0,0,0,0,0,0,1,0,1,0,0,0,0
17:08:38.580,377.72,9,11,0,0,40,38,112,12,2,0,-2200,0,0,0,1,1,1,0,0,1,0,0,100,4,65,1510,0,0,337,405,0,3.9,3.94,3.93,68,53,94,32,36,34,6327,567.276,0,0,0,5,37,40,22,48,29,49,382,405,0,0,9,0.64,-46,4,100,0,0,0,0,0,0,0,36,37,37,35,0,0,0,0,32,34,35,34,32,36,35,36,0,600207,0,0,0,0,-0.418,-0.638,0.763,41.57,-9.517354,2585.8,28.7,23.783656,38.03618,98.7,0,0,-42,-62,0,0,0,0,1,1,1,0,0,0,1,1,0,0,0,0,0,0,0,0,0,0,0,0,0,0,0,0,0,0,0,0,0,0,0,0,1,1,1,0,1,0,0,0,0,0,0,0,0,0,0,1,0,1,0,0,0,0
17:08:38.600,377.88,9,12,0,0,40,38,112,12,2,0,-2200,0,0,0,1,1,1,0,0,1,0,0,100,4,65,1510,0,0,337,405,0,3.9,3.94,3.93,68,53,94,32,36,34,6327,567.276,0,0,0,5,37,40,22,48,29,49,382,405,0,0,9,0.64,-46,6,131,0,0,0,0,0,0,0,36,37,37,35,0,0,0,0,31,34,35,34,32,36,35,36,0,600207,0,0,0,0,-0.41,-0.65,0.769,41.59,-9.2454296,2587.1,29.1,23.783656,38.03618,96.5,0,0,-41,-63,0,0,0,0,1,1,1,0,0,0,1,1,0,0,0,0,0,0,0,0,0,0,0,0,0,0,0,0,0,0,0,0,0,0,0,0,1,1,1,0,1,0,0,0,0,0,0,0,0,0,0,1,0,1,0,0,0,0
